,_id,browser,choice,collection,correct,correct_response,database,datetime,experiment_id,internal_node_id,iteration,key_press,oddity_gender,oddity_identity,oddity_index,oddity_race,oddity_tiltLR,oddity_tiltUD,rt,stimulus,time_elapsed,timed_out,trial_index,trial_number,trial_type,typicals_gender,typicals_identity,typicals_indices,typicals_race,typicals_tiltsLR,typicals_tiltsUD,practice_threshold_met,oddity_meta,typicals_meta,button_pressed,last_trial_type,prediction,choice_category,choice_object,oddity_category,oddity_name,oddity_type,stimulus_response_map,typical_category,typical_indices,typical_name,variation_level,encoding_pair,encoding_type,gender,identity,meta,original_index,original_tiltLR,original_tiltUD,race,response,retrieval_condition,tiltLR,tiltUD,tilt_change,tilt_difference,original_tilt,encoding_accuracy,encoding_avg_rt,encoding_n_trials,experimental_duration,filler_accuracy,filler_avg_rt,filler_n_trials,params,retrieval_accuracy,retrieval_avg_rt,retrieval_n_trials,total_bonus,total_payment,age,gender_other,latinx,session_id,study_id,subject_id,meta_new,meta_old,new_gender,new_identity,new_index,new_race,new_tiltLR,new_tiltUD,old_encoding_pair,old_encoding_type,old_gender,old_identity,old_index,old_original_index,old_original_tiltLR,old_original_tiltUD,old_race,old_tiltLR,old_tiltUD,stimuli
9148,6267074906b19921fe99d458,Chrome,1.0,main_task,1.0,1.0,chris,"4/25/2022, 2:40:42 PM",vqy1ync5e8534kcvchph,0.0-2.0-0.0,pilot_prolific_afc,37,man,107,0.0,latinx,50L,D,2905.0,"['../stimuli/version1_gray_lm/id107_50L_D.png', '../stimuli/version1_gray_lm/id108_00C_C.png', '../stimuli/version1_gray_lm/id108_25R_U.png']",235389.0,0.0,2.0,1.0,encoding_practice,woman,108,"[1, 2]",latinx,"['00C', '25R']","['C', 'U']",,,,,,,,,,,,,,,,,,,,,,,,,,,,,,,,,,,,,,,,,,,,,,,,,626705edcc1ef7741765872d,6266e20a583caa8581feb913,60242bdb4097360ad464addc,,,,,,,,,,,,,,,,,,,,
9149,6267074f06b19921fe99d459,Chrome,1.0,main_task,1.0,1.0,chris,"4/25/2022, 2:40:47 PM",vqy1ync5e8534kcvchph,0.0-2.1-0.1,pilot_prolific_afc,37,man,107,0.0,latinx,00C,D,2543.0,"['../stimuli/version1_gray_lm/id107_00C_D.png', '../stimuli/version1_gray_lm/id108_50R_U.png', '../stimuli/version1_gray_lm/id108_25L_C.png']",241167.0,0.0,4.0,2.0,encoding_practice,woman,108,"[1, 2]",latinx,"['50R', '25L']","['U', 'C']",,,,,,,,,,,,,,,,,,,,,,,,,,,,,,,,,,,,,,,,,,,,,,,,,626705edcc1ef7741765872d,6266e20a583caa8581feb913,60242bdb4097360ad464addc,,,,,,,,,,,,,,,,,,,,
9150,6267075206b19921fe99d45a,Chrome,1.0,main_task,1.0,1.0,chris,"4/25/2022, 2:40:50 PM",vqy1ync5e8534kcvchph,0.0-2.2-0.2,pilot_prolific_afc,37,man,107,0.0,latinx,50L,U,1775.0,"['../stimuli/version1_gray_lm/id107_50L_U.png', '../stimuli/version1_gray_lm/id108_00C_C.png', '../stimuli/version1_gray_lm/id108_25R_D.png']",244171.0,0.0,6.0,3.0,encoding_practice,woman,108,"[1, 2]",latinx,"['00C', '25R']","['C', 'D']",1.0,,,,,,,,,,,,,,,,,,,,,,,,,,,,,,,,,,,,,,,,,,,,,,,,626705edcc1ef7741765872d,6266e20a583caa8581feb913,60242bdb4097360ad464addc,,,,,,,,,,,,,,,,,,,,
9151,6267076006b19921fe99d45b,Chrome,2.0,main_task,1.0,2.0,chris,"4/25/2022, 2:41:04 PM",vqy1ync5e8534kcvchph,0.0-4.0,pilot_prolific_afc,39,woman,101,1.0,white,50R,U,3670.0,"['../stimuli/version1_gray_lm/id013_00C_D.png', '../stimuli/version1_gray_lm/id101_50R_U.png', '../stimuli/version1_gray_lm/id013_50L_C.png']",257567.0,0.0,9.0,1.0,encoding,woman,013,"[0, 2]",white,"['00C', '50L']","['D', 'C']",,"{'muct_id': '281', 'lighting': 't', 'race_guess': 'w', 'gender_guess': 'w', 'quality': '3', 'quality_eyes': '3', 'quality_mouth': '3', 'quality_ears': '3', 'quality_hair': '3', 'quality_neck': '3', 'facial_hair': '0.0', 'notes': None, 'race_common': 'white', 'gender_common': 'woman'}","{'muct_id': '14', 'lighting': 'q', 'race_guess': 'w', 'gender_guess': 'w', 'quality': '3', 'quality_eyes': '3', 'quality_mouth': '3', 'quality_ears': '3', 'quality_hair': '3', 'quality_neck': '3', 'facial_hair': '0.0', 'notes': None, 'race_common': 'white', 'gender_common': 'woman'}",,,,,,,,,,,,,,,,,,,,,,,,,,,,,,,,,,,,,,,,,,,,,,626705edcc1ef7741765872d,6266e20a583caa8581feb913,60242bdb4097360ad464addc,,,,,,,,,,,,,,,,,,,,
9152,6267076806b19921fe99d45c,Chrome,3.0,main_task,1.0,3.0,chris,"4/25/2022, 2:41:12 PM",vqy1ync5e8534kcvchph,0.0-6.0,pilot_prolific_afc,40,woman,103,2.0,black,25R,D,6424.0,"['../stimuli/version1_gray_lm/id142_00C_U.png', '../stimuli/version1_gray_lm/id142_25L_C.png', '../stimuli/version1_gray_lm/id103_25R_D.png']",265633.0,0.0,11.0,2.0,encoding,woman,142,"[0, 1]",black,"['00C', '25L']","['U', 'C']",,"{'muct_id': '285', 'lighting': 'v', 'race_guess': 'b', 'gender_guess': 'w', 'quality': '3', 'quality_eyes': '3', 'quality_mouth': '3', 'quality_ears': '3', 'quality_hair': '3', 'quality_neck': '3', 'facial_hair': '0.0', 'notes': 'earrings', 'race_common': 'black', 'gender_common': 'woman'}","{'muct_id': '87', 'lighting': 'r', 'race_guess': 'b', 'gender_guess': 'w', 'quality': '3', 'quality_eyes': '3', 'quality_mouth': '3', 'quality_ears': '3', 'quality_hair': '3', 'quality_neck': '3', 'facial_hair': '0.0', 'notes': 'earrings hair', 'race_common': 'black', 'gender_common': 'woman'}",,,,,,,,,,,,,,,,,,,,,,,,,,,,,,,,,,,,,,,,,,,,,,626705edcc1ef7741765872d,6266e20a583caa8581feb913,60242bdb4097360ad464addc,,,,,,,,,,,,,,,,,,,,
9153,6267076e06b19921fe99d45d,Chrome,2.0,main_task,1.0,2.0,chris,"4/25/2022, 2:41:18 PM",vqy1ync5e8534kcvchph,0.0-8.0,pilot_prolific_afc,39,man,105,1.0,black,00C,D,4472.0,"['../stimuli/version1_gray_lm/id090_25R_U.png', '../stimuli/version1_gray_lm/id105_00C_D.png', '../stimuli/version1_gray_lm/id090_50L_C.png']",271815.0,0.0,13.0,3.0,encoding,man,090,"[0, 2]",black,"['25R', '50L']","['U', 'C']",,"{'muct_id': '290', 'lighting': 't', 'race_guess': 'b', 'gender_guess': 'm', 'quality': '3', 'quality_eyes': '3', 'quality_mouth': '3', 'quality_ears': '3', 'quality_hair': '3', 'quality_neck': '3', 'facial_hair': '2.0', 'notes': None, 'race_common': 'black', 'gender_common': 'man'}","{'muct_id': '259', 'lighting': 'v', 'race_guess': 'b', 'gender_guess': 'm', 'quality': '3', 'quality_eyes': '3', 'quality_mouth': '3', 'quality_ears': '3', 'quality_hair': '3', 'quality_neck': '3', 'facial_hair': '2.0', 'notes': None, 'race_common': 'black', 'gender_common': 'man'}",,,,,,,,,,,,,,,,,,,,,,,,,,,,,,,,,,,,,,,,,,,,,,626705edcc1ef7741765872d,6266e20a583caa8581feb913,60242bdb4097360ad464addc,,,,,,,,,,,,,,,,,,,,
9154,6267077606b19921fe99d45e,Chrome,3.0,main_task,0.0,1.0,chris,"4/25/2022, 2:41:26 PM",vqy1ync5e8534kcvchph,0.0-10.0,pilot_prolific_afc,40,man,100,0.0,white,50R,C,6600.0,"['../stimuli/version1_gray_lm/id100_50R_C.png', '../stimuli/version1_gray_lm/id092_00C_U.png', '../stimuli/version1_gray_lm/id092_25L_D.png']",279464.0,0.0,15.0,4.0,encoding,man,092,"[1, 2]",white,"['00C', '25L']","['U', 'D']",,"{'muct_id': '280', 'lighting': 'u', 'race_guess': 'w', 'gender_guess': 'm', 'quality': '3', 'quality_eyes': '3', 'quality_mouth': '3', 'quality_ears': '3', 'quality_hair': '3', 'quality_neck': '3', 'facial_hair': '0.0', 'notes': None, 'race_common': 'white', 'gender_common': 'man'}","{'muct_id': '261', 'lighting': 'v', 'race_guess': 'w', 'gender_guess': 'm', 'quality': '2', 'quality_eyes': '2', 'quality_mouth': '3', 'quality_ears': '3', 'quality_hair': '3', 'quality_neck': '3', 'facial_hair': '0.0', 'notes': None, 'race_common': 'white', 'gender_common': 'man'}",,,,,,,,,,,,,,,,,,,,,,,,,,,,,,,,,,,,,,,,,,,,,,626705edcc1ef7741765872d,6266e20a583caa8581feb913,60242bdb4097360ad464addc,,,,,,,,,,,,,,,,,,,,
9155,6267077a06b19921fe99d45f,Chrome,1.0,main_task,1.0,1.0,chris,"4/25/2022, 2:41:30 PM",vqy1ync5e8534kcvchph,0.0-12.0,pilot_prolific_afc,37,man,104,0.0,white,00C,C,3376.0,"['../stimuli/version1_gray_lm/id104_00C_C.png', '../stimuli/version1_gray_lm/id012_50R_U.png', '../stimuli/version1_gray_lm/id012_25L_D.png']",283968.0,0.0,17.0,5.0,encoding,man,012,"[1, 2]",white,"['50R', '25L']","['U', 'D']",,"{'muct_id': '287', 'lighting': 't', 'race_guess': 'w', 'gender_guess': 'm', 'quality': '3', 'quality_eyes': '3', 'quality_mouth': '3', 'quality_ears': '3', 'quality_hair': '3', 'quality_neck': '3', 'facial_hair': '2.0', 'notes': None, 'race_common': 'white', 'gender_common': 'man'}","{'muct_id': '12', 'lighting': 'q', 'race_guess': 'i', 'gender_guess': 'm', 'quality': '3', 'quality_eyes': '3', 'quality_mouth': '3', 'quality_ears': '3', 'quality_hair': '3', 'quality_neck': '3', 'facial_hair': '2.0', 'notes': None, 'race_common': 'white', 'gender_common': 'man'}",,,,,,,,,,,,,,,,,,,,,,,,,,,,,,,,,,,,,,,,,,,,,,626705edcc1ef7741765872d,6266e20a583caa8581feb913,60242bdb4097360ad464addc,,,,,,,,,,,,,,,,,,,,
9156,6267077f06b19921fe99d460,Chrome,3.0,main_task,1.0,3.0,chris,"4/25/2022, 2:41:35 PM",vqy1ync5e8534kcvchph,0.0-14.0,pilot_prolific_afc,40,man,112,2.0,black,50L,U,3394.0,"['../stimuli/version1_gray_lm/id065_00C_C.png', '../stimuli/version1_gray_lm/id065_25R_D.png', '../stimuli/version1_gray_lm/id112_50L_U.png']",289094.0,0.0,19.0,6.0,encoding,man,065,"[0, 1]",black,"['00C', '25R']","['C', 'D']",,"{'muct_id': '406', 'lighting': 'w', 'race_guess': 'b', 'gender_guess': 'm', 'quality': '3', 'quality_eyes': '3', 'quality_mouth': '3', 'quality_ears': '3', 'quality_hair': '3', 'quality_neck': '3', 'facial_hair': '1.0', 'notes': None, 'race_common': 'black', 'gender_common': 'man'}","{'muct_id': '206', 'lighting': 't', 'race_guess': 'b', 'gender_guess': 'm', 'quality': '3', 'quality_eyes': '3', 'quality_mouth': '3', 'quality_ears': '3', 'quality_hair': '3', 'quality_neck': '3', 'facial_hair': '1.0', 'notes': None, 'race_common': 'black', 'gender_common': 'man'}",,,,,,,,,,,,,,,,,,,,,,,,,,,,,,,,,,,,,,,,,,,,,,626705edcc1ef7741765872d,6266e20a583caa8581feb913,60242bdb4097360ad464addc,,,,,,,,,,,,,,,,,,,,
9157,6267078506b19921fe99d461,Chrome,2.0,main_task,1.0,2.0,chris,"4/25/2022, 2:41:41 PM",vqy1ync5e8534kcvchph,0.0-16.0,pilot_prolific_afc,39,woman,102,1.0,white,00C,U,4703.0,"['../stimuli/version1_gray_lm/id155_50L_C.png', '../stimuli/version1_gray_lm/id102_00C_U.png', '../stimuli/version1_gray_lm/id155_25R_D.png']",294807.0,0.0,21.0,7.0,encoding,woman,155,"[0, 2]",white,"['50L', '25R']","['C', 'D']",,"{'muct_id': '283', 'lighting': 't', 'race_guess': 'i', 'gender_guess': 'w', 'quality': '3', 'quality_eyes': '3', 'quality_mouth': '3', 'quality_ears': '3', 'quality_hair': '3', 'quality_neck': '3', 'facial_hair': '0.0', 'notes': 'pottu', 'race_common': 'white', 'gender_common': 'woman'}","{'muct_id': '615', 'lighting': 'z', 'race_guess': 'w', 'gender_guess': 'w', 'quality': '3', 'quality_eyes': '3', 'quality_mouth': '3', 'quality_ears': '3', 'quality_hair': '3', 'quality_neck': '3', 'facial_hair': '0.0', 'notes': 'earrings', 'race_common': 'white', 'gender_common': 'woman'}",,,,,,,,,,,,,,,,,,,,,,,,,,,,,,,,,,,,,,,,,,,,,,626705edcc1ef7741765872d,6266e20a583caa8581feb913,60242bdb4097360ad464addc,,,,,,,,,,,,,,,,,,,,
9158,6267078906b19921fe99d462,Chrome,3.0,main_task,1.0,3.0,chris,"4/25/2022, 2:41:45 PM",vqy1ync5e8534kcvchph,0.0-18.0,pilot_prolific_afc,40,woman,111,2.0,black,25L,D,3450.0,"['../stimuli/version1_gray_lm/id027_50R_C.png', '../stimuli/version1_gray_lm/id027_00C_U.png', '../stimuli/version1_gray_lm/id111_25L_D.png']",299230.0,0.0,23.0,8.0,encoding,woman,027,"[0, 1]",black,"['50R', '00C']","['C', 'U']",,"{'muct_id': '405', 'lighting': 'w', 'race_guess': 'b', 'gender_guess': 'w', 'quality': '3', 'quality_eyes': '3', 'quality_mouth': '3', 'quality_ears': '3', 'quality_hair': '3', 'quality_neck': '3', 'facial_hair': '0.0', 'notes': 'hair earrings', 'race_common': 'black', 'gender_common': 'woman'}","{'muct_id': '37', 'lighting': 'q', 'race_guess': 'b', 'gender_guess': 'w', 'quality': '3', 'quality_eyes': '3', 'quality_mouth': '3', 'quality_ears': '3', 'quality_hair': '3', 'quality_neck': '3', 'facial_hair': '0.0', 'notes': 'earrings', 'race_common': 'black', 'gender_common': 'woman'}",,,,,,,,,,,,,,,,,,,,,,,,,,,,,,,,,,,,,,,,,,,,,,626705edcc1ef7741765872d,6266e20a583caa8581feb913,60242bdb4097360ad464addc,,,,,,,,,,,,,,,,,,,,
9159,6267078d06b19921fe99d463,Chrome,1.0,main_task,1.0,1.0,chris,"4/25/2022, 2:41:49 PM",vqy1ync5e8534kcvchph,0.0-20.0,pilot_prolific_afc,37,man,117,0.0,black,25R,C,3054.0,"['../stimuli/version1_gray_lm/id117_25R_C.png', '../stimuli/version1_gray_lm/id004_00C_D.png', '../stimuli/version1_gray_lm/id004_25L_U.png']",303207.0,0.0,25.0,9.0,encoding,man,004,"[1, 2]",black,"['00C', '25L']","['D', 'U']",,"{'muct_id': '417', 'lighting': 'w', 'race_guess': 'b', 'gender_guess': 'm', 'quality': '3', 'quality_eyes': '3', 'quality_mouth': '3', 'quality_ears': '3', 'quality_hair': '3', 'quality_neck': '3', 'facial_hair': '1.0', 'notes': 'mouth', 'race_common': 'black', 'gender_common': 'man'}","{'muct_id': '4', 'lighting': 'q', 'race_guess': 'b', 'gender_guess': 'm', 'quality': '3', 'quality_eyes': '3', 'quality_mouth': '3', 'quality_ears': '3', 'quality_hair': '3', 'quality_neck': '3', 'facial_hair': '2.0', 'notes': None, 'race_common': 'black', 'gender_common': 'man'}",,,,,,,,,,,,,,,,,,,,,,,,,,,,,,,,,,,,,,,,,,,,,,626705edcc1ef7741765872d,6266e20a583caa8581feb913,60242bdb4097360ad464addc,,,,,,,,,,,,,,,,,,,,
9160,6267079206b19921fe99d464,Chrome,3.0,main_task,1.0,3.0,chris,"4/25/2022, 2:41:54 PM",vqy1ync5e8534kcvchph,0.0-22.0,pilot_prolific_afc,40,woman,114,2.0,white,25R,D,3203.0,"['../stimuli/version1_gray_lm/id017_25L_C.png', '../stimuli/version1_gray_lm/id017_00C_U.png', '../stimuli/version1_gray_lm/id114_25R_D.png']",307658.0,0.0,27.0,10.0,encoding,woman,017,"[0, 1]",white,"['25L', '00C']","['C', 'U']",,"{'muct_id': '410', 'lighting': 'w', 'race_guess': 'w', 'gender_guess': 'w', 'quality': '3', 'quality_eyes': '3', 'quality_mouth': '3', 'quality_ears': '3', 'quality_hair': '3', 'quality_neck': '3', 'facial_hair': '0.0', 'notes': 'makeup mouth', 'race_common': 'white', 'gender_common': 'woman'}","{'muct_id': '19', 'lighting': 'r', 'race_guess': 'w', 'gender_guess': 'w', 'quality': '3', 'quality_eyes': '3', 'quality_mouth': '3', 'quality_ears': '3', 'quality_hair': '3', 'quality_neck': '3', 'facial_hair': '0.0', 'notes': None, 'race_common': 'white', 'gender_common': 'woman'}",,,,,,,,,,,,,,,,,,,,,,,,,,,,,,,,,,,,,,,,,,,,,,626705edcc1ef7741765872d,6266e20a583caa8581feb913,60242bdb4097360ad464addc,,,,,,,,,,,,,,,,,,,,
9161,6267079606b19921fe99d465,Chrome,1.0,main_task,1.0,1.0,chris,"4/25/2022, 2:41:58 PM",vqy1ync5e8534kcvchph,0.0-24.0,pilot_prolific_afc,37,woman,109,0.0,white,00C,C,3551.0,"['../stimuli/version1_gray_lm/id109_00C_C.png', '../stimuli/version1_gray_lm/id051_25R_U.png', '../stimuli/version1_gray_lm/id051_50L_D.png']",312005.0,0.0,29.0,11.0,encoding,woman,051,"[1, 2]",white,"['25R', '50L']","['U', 'D']",,"{'muct_id': '401', 'lighting': 'w', 'race_guess': 'w', 'gender_guess': 'w', 'quality': '3', 'quality_eyes': '3', 'quality_mouth': '3', 'quality_ears': '3', 'quality_hair': '3', 'quality_neck': '3', 'facial_hair': '0.0', 'notes': 'mouth', 'race_common': 'white', 'gender_common': 'woman'}","{'muct_id': '74', 'lighting': 'q', 'race_guess': 'w', 'gender_guess': 'w', 'quality': '3', 'quality_eyes': '3', 'quality_mouth': '3', 'quality_ears': '3', 'quality_hair': '3', 'quality_neck': '3', 'facial_hair': '0.0', 'notes': None, 'race_common': 'white', 'gender_common': 'woman'}",,,,,,,,,,,,,,,,,,,,,,,,,,,,,,,,,,,,,,,,,,,,,,626705edcc1ef7741765872d,6266e20a583caa8581feb913,60242bdb4097360ad464addc,,,,,,,,,,,,,,,,,,,,
9162,6267079c06b19921fe99d466,Chrome,2.0,main_task,1.0,2.0,chris,"4/25/2022, 2:42:04 PM",vqy1ync5e8534kcvchph,0.0-26.0,pilot_prolific_afc,39,man,113,1.0,black,00C,D,4976.0,"['../stimuli/version1_gray_lm/id091_25L_C.png', '../stimuli/version1_gray_lm/id113_00C_D.png', '../stimuli/version1_gray_lm/id091_50R_U.png']",317600.0,0.0,31.0,12.0,encoding,man,091,"[0, 2]",black,"['25L', '50R']","['C', 'U']",,"{'muct_id': '407', 'lighting': 'x', 'race_guess': 'u', 'gender_guess': 'm', 'quality': '3', 'quality_eyes': '3', 'quality_mouth': '3', 'quality_ears': '3', 'quality_hair': '3', 'quality_neck': '3', 'facial_hair': '3.0', 'notes': 'beard', 'race_common': 'black', 'gender_common': 'man'}","{'muct_id': '260', 'lighting': 't', 'race_guess': 'b', 'gender_guess': 'm', 'quality': '3', 'quality_eyes': '3', 'quality_mouth': '3', 'quality_ears': '3', 'quality_hair': '3', 'quality_neck': '3', 'facial_hair': '4.0', 'notes': 'beard', 'race_common': 'black', 'gender_common': 'man'}",,,,,,,,,,,,,,,,,,,,,,,,,,,,,,,,,,,,,,,,,,,,,,626705edcc1ef7741765872d,6266e20a583caa8581feb913,60242bdb4097360ad464addc,,,,,,,,,,,,,,,,,,,,
9163,6267079f06b19921fe99d467,Chrome,3.0,main_task,1.0,3.0,chris,"4/25/2022, 2:42:07 PM",vqy1ync5e8534kcvchph,0.0-28.0,pilot_prolific_afc,40,man,115,2.0,white,00C,D,2285.0,"['../stimuli/version1_gray_lm/id094_50L_C.png', '../stimuli/version1_gray_lm/id094_50R_U.png', '../stimuli/version1_gray_lm/id115_00C_D.png']",320679.0,0.0,33.0,13.0,encoding,man,094,"[0, 1]",white,"['50L', '50R']","['C', 'U']",,"{'muct_id': '412', 'lighting': 'x', 'race_guess': 'w', 'gender_guess': 'm', 'quality': '3', 'quality_eyes': '3', 'quality_mouth': '3', 'quality_ears': '3', 'quality_hair': '3', 'quality_neck': '3', 'facial_hair': '0.0', 'notes': None, 'race_common': 'white', 'gender_common': 'man'}","{'muct_id': '264', 'lighting': 't', 'race_guess': 'w', 'gender_guess': 'm', 'quality': '3', 'quality_eyes': '3', 'quality_mouth': '3', 'quality_ears': '3', 'quality_hair': '3', 'quality_neck': '3', 'facial_hair': '0.0', 'notes': None, 'race_common': 'white', 'gender_common': 'man'}",,,,,,,,,,,,,,,,,,,,,,,,,,,,,,,,,,,,,,,,,,,,,,626705edcc1ef7741765872d,6266e20a583caa8581feb913,60242bdb4097360ad464addc,,,,,,,,,,,,,,,,,,,,
9164,626707a406b19921fe99d468,Chrome,3.0,main_task,1.0,3.0,chris,"4/25/2022, 2:42:12 PM",vqy1ync5e8534kcvchph,0.0-30.0,pilot_prolific_afc,40,man,118,2.0,black,50R,D,4163.0,"['../stimuli/version1_gray_lm/id001_25L_U.png', '../stimuli/version1_gray_lm/id001_00C_C.png', '../stimuli/version1_gray_lm/id118_50R_D.png']",325632.0,0.0,35.0,14.0,encoding,man,001,"[0, 1]",black,"['25L', '00C']","['U', 'C']",,"{'muct_id': '419', 'lighting': 'x', 'race_guess': 'b', 'gender_guess': 'm', 'quality': '3', 'quality_eyes': '3', 'quality_mouth': '3', 'quality_ears': '3', 'quality_hair': '3', 'quality_neck': '3', 'facial_hair': '1.0', 'notes': None, 'race_common': 'black', 'gender_common': 'man'}","{'muct_id': '1', 'lighting': 'q', 'race_guess': 'b', 'gender_guess': 'm', 'quality': '3', 'quality_eyes': '3', 'quality_mouth': '3', 'quality_ears': '3', 'quality_hair': '3', 'quality_neck': '3', 'facial_hair': '1.0', 'notes': None, 'race_common': 'black', 'gender_common': 'man'}",,,,,,,,,,,,,,,,,,,,,,,,,,,,,,,,,,,,,,,,,,,,,,626705edcc1ef7741765872d,6266e20a583caa8581feb913,60242bdb4097360ad464addc,,,,,,,,,,,,,,,,,,,,
9165,626707a706b19921fe99d469,Chrome,2.0,main_task,1.0,2.0,chris,"4/25/2022, 2:42:16 PM",vqy1ync5e8534kcvchph,0.0-32.0,pilot_prolific_afc,39,man,119,1.0,black,00C,D,3053.0,"['../stimuli/version1_gray_lm/id097_25L_C.png', '../stimuli/version1_gray_lm/id119_00C_D.png', '../stimuli/version1_gray_lm/id097_50R_U.png']",329382.0,0.0,37.0,15.0,encoding,man,097,"[0, 2]",black,"['25L', '50R']","['C', 'U']",,"{'muct_id': '420', 'lighting': 'w', 'race_guess': 'b', 'gender_guess': 'm', 'quality': '3', 'quality_eyes': '3', 'quality_mouth': '3', 'quality_ears': '3', 'quality_hair': '3', 'quality_neck': '3', 'facial_hair': '0.0', 'notes': None, 'race_common': 'black', 'gender_common': 'man'}","{'muct_id': '269', 'lighting': 'u', 'race_guess': 'b', 'gender_guess': 'm', 'quality': '3', 'quality_eyes': '3', 'quality_mouth': '3', 'quality_ears': '3', 'quality_hair': '3', 'quality_neck': '3', 'facial_hair': '0.0', 'notes': None, 'race_common': 'black', 'gender_common': 'man'}",,,,,,,,,,,,,,,,,,,,,,,,,,,,,,,,,,,,,,,,,,,,,,626705edcc1ef7741765872d,6266e20a583caa8581feb913,60242bdb4097360ad464addc,,,,,,,,,,,,,,,,,,,,
9166,626707ab06b19921fe99d46a,Chrome,1.0,main_task,1.0,1.0,chris,"4/25/2022, 2:42:19 PM",vqy1ync5e8534kcvchph,0.0-34.0,pilot_prolific_afc,37,man,116,0.0,white,00C,C,2936.0,"['../stimuli/version1_gray_lm/id116_00C_C.png', '../stimuli/version1_gray_lm/id156_25L_D.png', '../stimuli/version1_gray_lm/id156_50R_U.png']",333000.0,0.0,39.0,16.0,encoding,man,156,"[1, 2]",white,"['25L', '50R']","['D', 'U']",,"{'muct_id': '414', 'lighting': 'w', 'race_guess': 'w', 'gender_guess': 'm', 'quality': '3', 'quality_eyes': '3', 'quality_mouth': '3', 'quality_ears': '3', 'quality_hair': '3', 'quality_neck': '3', 'facial_hair': '0.0', 'notes': None, 'race_common': 'white', 'gender_common': 'man'}","{'muct_id': '258', 'lighting': 'u', 'race_guess': 'w', 'gender_guess': 'm', 'quality': '2', 'quality_eyes': '3', 'quality_mouth': '3', 'quality_ears': '3', 'quality_hair': '2', 'quality_neck': '3', 'facial_hair': '0.0', 'notes': 'hair', 'race_common': 'white', 'gender_common': 'man'}",,,,,,,,,,,,,,,,,,,,,,,,,,,,,,,,,,,,,,,,,,,,,,626705edcc1ef7741765872d,6266e20a583caa8581feb913,60242bdb4097360ad464addc,,,,,,,,,,,,,,,,,,,,
9167,626707af06b19921fe99d46b,Chrome,1.0,main_task,1.0,1.0,chris,"4/25/2022, 2:42:23 PM",vqy1ync5e8534kcvchph,0.0-36.0,pilot_prolific_afc,37,woman,123,0.0,white,25L,D,3015.0,"['../stimuli/version1_gray_lm/id123_25L_D.png', '../stimuli/version1_gray_lm/id084_25R_U.png', '../stimuli/version1_gray_lm/id084_00C_C.png']",336636.0,0.0,41.0,17.0,encoding,woman,084,"[1, 2]",white,"['25R', '00C']","['U', 'C']",,"{'muct_id': '76', 'lighting': 'q', 'race_guess': 'w', 'gender_guess': 'w', 'quality': '2', 'quality_eyes': '2', 'quality_mouth': '3', 'quality_ears': '2', 'quality_hair': '2', 'quality_neck': '3', 'facial_hair': '0.0', 'notes': 'hair', 'race_common': 'white', 'gender_common': 'woman'}","{'muct_id': '248', 'lighting': 'u', 'race_guess': 'w', 'gender_guess': 'w', 'quality': '3', 'quality_eyes': '3', 'quality_mouth': '3', 'quality_ears': '3', 'quality_hair': '3', 'quality_neck': '3', 'facial_hair': '0.0', 'notes': None, 'race_common': 'white', 'gender_common': 'woman'}",,,,,,,,,,,,,,,,,,,,,,,,,,,,,,,,,,,,,,,,,,,,,,626705edcc1ef7741765872d,6266e20a583caa8581feb913,60242bdb4097360ad464addc,,,,,,,,,,,,,,,,,,,,
9168,626707b706b19921fe99d46c,Chrome,1.0,main_task,1.0,1.0,chris,"4/25/2022, 2:42:31 PM",vqy1ync5e8534kcvchph,0.0-38.0,pilot_prolific_afc,37,woman,120,0.0,black,00C,U,7339.0,"['../stimuli/version1_gray_lm/id120_00C_U.png', '../stimuli/version1_gray_lm/id022_25L_C.png', '../stimuli/version1_gray_lm/id022_50R_D.png']",344595.0,0.0,43.0,18.0,encoding,woman,022,"[1, 2]",black,"['25L', '50R']","['C', 'D']",,"{'muct_id': '421', 'lighting': 'x', 'race_guess': 'b', 'gender_guess': 'w', 'quality': '3', 'quality_eyes': '3', 'quality_mouth': '3', 'quality_ears': '3', 'quality_hair': '3', 'quality_neck': '3', 'facial_hair': '0.0', 'notes': None, 'race_common': 'black', 'gender_common': 'woman'}","{'muct_id': '26', 'lighting': 'q', 'race_guess': 'b', 'gender_guess': 'w', 'quality': '3', 'quality_eyes': '3', 'quality_mouth': '3', 'quality_ears': '3', 'quality_hair': '3', 'quality_neck': '3', 'facial_hair': '0.0', 'notes': 'earrings', 'race_common': 'black', 'gender_common': 'woman'}",,,,,,,,,,,,,,,,,,,,,,,,,,,,,,,,,,,,,,,,,,,,,,626705edcc1ef7741765872d,6266e20a583caa8581feb913,60242bdb4097360ad464addc,,,,,,,,,,,,,,,,,,,,
9169,626707ba06b19921fe99d46d,Chrome,3.0,main_task,0.0,1.0,chris,"4/25/2022, 2:42:34 PM",vqy1ync5e8534kcvchph,0.0-40.0,pilot_prolific_afc,40,woman,125,0.0,white,00C,U,2852.0,"['../stimuli/version1_gray_lm/id125_00C_U.png', '../stimuli/version1_gray_lm/id031_50R_C.png', '../stimuli/version1_gray_lm/id031_25L_D.png']",348165.0,0.0,45.0,19.0,encoding,woman,031,"[1, 2]",white,"['50R', '25L']","['C', 'D']",,"{'muct_id': '433', 'lighting': 'x', 'race_guess': 'w', 'gender_guess': 'w', 'quality': '3', 'quality_eyes': '3', 'quality_mouth': '3', 'quality_ears': '3', 'quality_hair': '3', 'quality_neck': '3', 'facial_hair': '0.0', 'notes': None, 'race_common': 'white', 'gender_common': 'woman'}","{'muct_id': '42', 'lighting': 'q', 'race_guess': 'u', 'gender_guess': 'w', 'quality': '2', 'quality_eyes': '3', 'quality_mouth': '3', 'quality_ears': '2', 'quality_hair': '3', 'quality_neck': '3', 'facial_hair': '0.0', 'notes': 'mouth', 'race_common': 'white', 'gender_common': 'woman'}",,,,,,,,,,,,,,,,,,,,,,,,,,,,,,,,,,,,,,,,,,,,,,626705edcc1ef7741765872d,6266e20a583caa8581feb913,60242bdb4097360ad464addc,,,,,,,,,,,,,,,,,,,,
9170,626707be06b19921fe99d46e,Chrome,3.0,main_task,1.0,3.0,chris,"4/25/2022, 2:42:38 PM",vqy1ync5e8534kcvchph,0.0-42.0,pilot_prolific_afc,40,man,121,2.0,black,00C,D,2868.0,"['../stimuli/version1_gray_lm/id058_50R_C.png', '../stimuli/version1_gray_lm/id058_50L_U.png', '../stimuli/version1_gray_lm/id121_00C_D.png']",351720.0,0.0,47.0,20.0,encoding,man,058,"[0, 1]",black,"['50R', '50L']","['C', 'U']",,"{'muct_id': '423', 'lighting': 'w', 'race_guess': 'b', 'gender_guess': 'm', 'quality': '3', 'quality_eyes': '3', 'quality_mouth': '3', 'quality_ears': '3', 'quality_hair': '3', 'quality_neck': '3', 'facial_hair': '1.0', 'notes': None, 'race_common': 'black', 'gender_common': 'man'}","{'muct_id': '84', 'lighting': 'q', 'race_guess': 'b', 'gender_guess': 'm', 'quality': '2', 'quality_eyes': '2', 'quality_mouth': '3', 'quality_ears': '3', 'quality_hair': '3', 'quality_neck': '3', 'facial_hair': '3.0', 'notes': 'beard', 'race_common': 'black', 'gender_common': 'man'}",,,,,,,,,,,,,,,,,,,,,,,,,,,,,,,,,,,,,,,,,,,,,,626705edcc1ef7741765872d,6266e20a583caa8581feb913,60242bdb4097360ad464addc,,,,,,,,,,,,,,,,,,,,
9171,626707c206b19921fe99d46f,Chrome,2.0,main_task,1.0,2.0,chris,"4/25/2022, 2:42:42 PM",vqy1ync5e8534kcvchph,0.0-44.0,pilot_prolific_afc,39,man,122,1.0,black,00C,U,3462.0,"['../stimuli/version1_gray_lm/id040_50R_D.png', '../stimuli/version1_gray_lm/id122_00C_U.png', '../stimuli/version1_gray_lm/id040_25L_C.png']",355972.0,0.0,49.0,21.0,encoding,man,040,"[0, 2]",black,"['50R', '25L']","['D', 'C']",,"{'muct_id': '425', 'lighting': 'x', 'race_guess': 'b', 'gender_guess': 'm', 'quality': '3', 'quality_eyes': '3', 'quality_mouth': '3', 'quality_ears': '3', 'quality_hair': '3', 'quality_neck': '3', 'facial_hair': '2.0', 'notes': None, 'race_common': 'black', 'gender_common': 'man'}","{'muct_id': '55', 'lighting': 'r', 'race_guess': 'b', 'gender_guess': 'm', 'quality': '3', 'quality_eyes': '3', 'quality_mouth': '3', 'quality_ears': '3', 'quality_hair': '3', 'quality_neck': '3', 'facial_hair': '3.0', 'notes': 'beard', 'race_common': 'black', 'gender_common': 'man'}",,,,,,,,,,,,,,,,,,,,,,,,,,,,,,,,,,,,,,,,,,,,,,626705edcc1ef7741765872d,6266e20a583caa8581feb913,60242bdb4097360ad464addc,,,,,,,,,,,,,,,,,,,,
9172,626707c506b19921fe99d470,Chrome,3.0,main_task,0.0,1.0,chris,"4/25/2022, 2:42:45 PM",vqy1ync5e8534kcvchph,0.0-46.0,pilot_prolific_afc,40,man,143,0.0,white,50R,D,2622.0,"['../stimuli/version1_gray_lm/id143_50R_D.png', '../stimuli/version1_gray_lm/id061_00C_C.png', '../stimuli/version1_gray_lm/id061_25L_U.png']",359162.0,0.0,51.0,22.0,encoding,man,061,"[1, 2]",white,"['00C', '25L']","['C', 'U']",,"{'muct_id': '90', 'lighting': 'q', 'race_guess': 'u', 'gender_guess': 'm', 'quality': '2', 'quality_eyes': '3', 'quality_mouth': '3', 'quality_ears': '2', 'quality_hair': '3', 'quality_neck': '3', 'facial_hair': '4.0', 'notes': 'beard', 'race_common': 'white', 'gender_common': 'man'}","{'muct_id': '89', 'lighting': 'r', 'race_guess': 'w', 'gender_guess': 'm', 'quality': '3', 'quality_eyes': '3', 'quality_mouth': '3', 'quality_ears': '3', 'quality_hair': '3', 'quality_neck': '3', 'facial_hair': '2.0', 'notes': None, 'race_common': 'white', 'gender_common': 'man'}",,,,,,,,,,,,,,,,,,,,,,,,,,,,,,,,,,,,,,,,,,,,,,626705edcc1ef7741765872d,6266e20a583caa8581feb913,60242bdb4097360ad464addc,,,,,,,,,,,,,,,,,,,,
9173,626707cb06b19921fe99d471,Chrome,1.0,main_task,1.0,1.0,chris,"4/25/2022, 2:42:51 PM",vqy1ync5e8534kcvchph,0.0-48.0,pilot_prolific_afc,37,man,124,0.0,black,00C,U,4616.0,"['../stimuli/version1_gray_lm/id124_00C_U.png', '../stimuli/version1_gray_lm/id030_25L_C.png', '../stimuli/version1_gray_lm/id030_25R_D.png']",364729.0,0.0,53.0,23.0,encoding,man,030,"[1, 2]",black,"['25L', '25R']","['C', 'D']",,"{'muct_id': '431', 'lighting': 'x', 'race_guess': 'b', 'gender_guess': 'u', 'quality': '3', 'quality_eyes': '3', 'quality_mouth': '3', 'quality_ears': '3', 'quality_hair': '3', 'quality_neck': '3', 'facial_hair': '0.0', 'notes': 'mouth', 'race_common': 'black', 'gender_common': 'man'}","{'muct_id': '41', 'lighting': 'r', 'race_guess': 'b', 'gender_guess': 'm', 'quality': '3', 'quality_eyes': '3', 'quality_mouth': '3', 'quality_ears': '3', 'quality_hair': '3', 'quality_neck': '3', 'facial_hair': '0.0', 'notes': None, 'race_common': 'black', 'gender_common': 'man'}",,,,,,,,,,,,,,,,,,,,,,,,,,,,,,,,,,,,,,,,,,,,,,626705edcc1ef7741765872d,6266e20a583caa8581feb913,60242bdb4097360ad464addc,,,,,,,,,,,,,,,,,,,,
9174,626707d106b19921fe99d472,Chrome,3.0,main_task,1.0,3.0,chris,"4/25/2022, 2:42:57 PM",vqy1ync5e8534kcvchph,0.0-50.0,pilot_prolific_afc,40,woman,141,2.0,white,25R,D,5401.0,"['../stimuli/version1_gray_lm/id029_00C_C.png', '../stimuli/version1_gray_lm/id029_50L_U.png', '../stimuli/version1_gray_lm/id141_25R_D.png']",371014.0,0.0,55.0,24.0,encoding,woman,029,"[0, 1]",white,"['00C', '50L']","['C', 'U']",,"{'muct_id': '77', 'lighting': 's', 'race_guess': 'w', 'gender_guess': 'w', 'quality': '3', 'quality_eyes': '3', 'quality_mouth': '3', 'quality_ears': '3', 'quality_hair': '3', 'quality_neck': '3', 'facial_hair': '0.0', 'notes': None, 'race_common': 'white', 'gender_common': 'woman'}","{'muct_id': '39', 'lighting': 'r', 'race_guess': 'w', 'gender_guess': 'w', 'quality': '3', 'quality_eyes': '3', 'quality_mouth': '3', 'quality_ears': '3', 'quality_hair': '3', 'quality_neck': '3', 'facial_hair': '0.0', 'notes': 'earrings hair', 'race_common': 'white', 'gender_common': 'woman'}",,,,,,,,,,,,,,,,,,,,,,,,,,,,,,,,,,,,,,,,,,,,,,626705edcc1ef7741765872d,6266e20a583caa8581feb913,60242bdb4097360ad464addc,,,,,,,,,,,,,,,,,,,,
9175,626707d606b19921fe99d473,Chrome,2.0,main_task,1.0,2.0,chris,"4/25/2022, 2:43:02 PM",vqy1ync5e8534kcvchph,0.0-52.0,pilot_prolific_afc,39,woman,127,1.0,black,00C,D,4114.0,"['../stimuli/version1_gray_lm/id144_50R_U.png', '../stimuli/version1_gray_lm/id127_00C_D.png', '../stimuli/version1_gray_lm/id144_50L_C.png']",375773.0,0.0,57.0,25.0,encoding,woman,144,"[0, 2]",black,"['50R', '50L']","['U', 'C']",,"{'muct_id': '435', 'lighting': 'x', 'race_guess': 'b', 'gender_guess': 'w', 'quality': '3', 'quality_eyes': '3', 'quality_mouth': '3', 'quality_ears': '3', 'quality_hair': '3', 'quality_neck': '3', 'facial_hair': '0.0', 'notes': 'bandana', 'race_common': 'black', 'gender_common': 'woman'}","{'muct_id': '214', 'lighting': 'u', 'race_guess': 'b', 'gender_guess': 'w', 'quality': '2', 'quality_eyes': '2', 'quality_mouth': '3', 'quality_ears': '3', 'quality_hair': '3', 'quality_neck': '3', 'facial_hair': '0.0', 'notes': None, 'race_common': 'black', 'gender_common': 'woman'}",,,,,,,,,,,,,,,,,,,,,,,,,,,,,,,,,,,,,,,,,,,,,,626705edcc1ef7741765872d,6266e20a583caa8581feb913,60242bdb4097360ad464addc,,,,,,,,,,,,,,,,,,,,
9176,626707d906b19921fe99d474,Chrome,1.0,main_task,1.0,1.0,chris,"4/25/2022, 2:43:05 PM",vqy1ync5e8534kcvchph,0.0-54.0,pilot_prolific_afc,37,man,146,0.0,white,25L,U,2380.0,"['../stimuli/version1_gray_lm/id146_25L_U.png', '../stimuli/version1_gray_lm/id080_00C_D.png', '../stimuli/version1_gray_lm/id080_25R_C.png']",378782.0,0.0,59.0,26.0,encoding,man,080,"[1, 2]",white,"['00C', '25R']","['D', 'C']",,"{'muct_id': '254', 'lighting': 'v', 'race_guess': 'w', 'gender_guess': 'm', 'quality': '2', 'quality_eyes': '2', 'quality_mouth': '3', 'quality_ears': '3', 'quality_hair': '2', 'quality_neck': '3', 'facial_hair': '0.0', 'notes': 'hair', 'race_common': 'white', 'gender_common': 'man'}","{'muct_id': '240', 'lighting': 'u', 'race_guess': 'w', 'gender_guess': 'm', 'quality': '3', 'quality_eyes': '3', 'quality_mouth': '3', 'quality_ears': '3', 'quality_hair': '3', 'quality_neck': '3', 'facial_hair': '0.0', 'notes': 'mouth', 'race_common': 'white', 'gender_common': 'man'}",,,,,,,,,,,,,,,,,,,,,,,,,,,,,,,,,,,,,,,,,,,,,,626705edcc1ef7741765872d,6266e20a583caa8581feb913,60242bdb4097360ad464addc,,,,,,,,,,,,,,,,,,,,
9177,626707e106b19921fe99d475,Chrome,1.0,main_task,0.0,2.0,chris,"4/25/2022, 2:43:13 PM",vqy1ync5e8534kcvchph,0.0-56.0,pilot_prolific_afc,37,woman,126,1.0,black,50R,D,7222.0,"['../stimuli/version1_gray_lm/id069_50L_U.png', '../stimuli/version1_gray_lm/id126_50R_D.png', '../stimuli/version1_gray_lm/id069_00C_C.png']",386725.0,0.0,61.0,27.0,encoding,woman,069,"[0, 2]",black,"['50L', '00C']","['U', 'C']",,"{'muct_id': '434', 'lighting': 'w', 'race_guess': 'b', 'gender_guess': 'w', 'quality': '3', 'quality_eyes': '3', 'quality_mouth': '3', 'quality_ears': '3', 'quality_hair': '3', 'quality_neck': '3', 'facial_hair': '0.0', 'notes': 'earrings', 'race_common': 'black', 'gender_common': 'woman'}","{'muct_id': '218', 'lighting': 't', 'race_guess': 'b', 'gender_guess': 'w', 'quality': '3', 'quality_eyes': '3', 'quality_mouth': '3', 'quality_ears': '3', 'quality_hair': '3', 'quality_neck': '3', 'facial_hair': '0.0', 'notes': None, 'race_common': 'black', 'gender_common': 'woman'}",,,,,,,,,,,,,,,,,,,,,,,,,,,,,,,,,,,,,,,,,,,,,,626705edcc1ef7741765872d,6266e20a583caa8581feb913,60242bdb4097360ad464addc,,,,,,,,,,,,,,,,,,,,
9178,626707e606b19921fe99d476,Chrome,2.0,main_task,1.0,2.0,chris,"4/25/2022, 2:43:18 PM",vqy1ync5e8534kcvchph,0.0-58.0,pilot_prolific_afc,39,man,145,1.0,white,00C,U,3938.0,"['../stimuli/version1_gray_lm/id099_50L_D.png', '../stimuli/version1_gray_lm/id145_00C_U.png', '../stimuli/version1_gray_lm/id099_50R_C.png']",391704.0,0.0,63.0,28.0,encoding,man,099,"[0, 2]",white,"['50L', '50R']","['D', 'C']",,"{'muct_id': '230', 'lighting': 'u', 'race_guess': 'w', 'gender_guess': 'm', 'quality': '3', 'quality_eyes': '3', 'quality_mouth': '3', 'quality_ears': '3', 'quality_hair': '3', 'quality_neck': '3', 'facial_hair': '0.0', 'notes': 'hair', 'race_common': 'white', 'gender_common': 'man'}","{'muct_id': '278', 'lighting': 't', 'race_guess': 'w', 'gender_guess': 'm', 'quality': '3', 'quality_eyes': '3', 'quality_mouth': '3', 'quality_ears': '3', 'quality_hair': '3', 'quality_neck': '3', 'facial_hair': '0.0', 'notes': None, 'race_common': 'white', 'gender_common': 'man'}",,,,,,,,,,,,,,,,,,,,,,,,,,,,,,,,,,,,,,,,,,,,,,626705edcc1ef7741765872d,6266e20a583caa8581feb913,60242bdb4097360ad464addc,,,,,,,,,,,,,,,,,,,,
9179,626707ec06b19921fe99d477,Chrome,1.0,main_task,1.0,1.0,chris,"4/25/2022, 2:43:24 PM",vqy1ync5e8534kcvchph,0.0-60.0,pilot_prolific_afc,37,man,128,0.0,black,00C,D,5367.0,"['../stimuli/version1_gray_lm/id128_00C_D.png', '../stimuli/version1_gray_lm/id056_50R_C.png', '../stimuli/version1_gray_lm/id056_50L_U.png']",397627.0,0.0,65.0,29.0,encoding,man,056,"[1, 2]",black,"['50R', '50L']","['C', 'U']",,"{'muct_id': '436', 'lighting': 'w', 'race_guess': 'b', 'gender_guess': 'm', 'quality': '3', 'quality_eyes': '3', 'quality_mouth': '3', 'quality_ears': '3', 'quality_hair': '3', 'quality_neck': '3', 'facial_hair': '3.0', 'notes': 'beard', 'race_common': 'black', 'gender_common': 'man'}","{'muct_id': '82', 'lighting': 'q', 'race_guess': 'b', 'gender_guess': 'm', 'quality': '3', 'quality_eyes': '3', 'quality_mouth': '3', 'quality_ears': '3', 'quality_hair': '3', 'quality_neck': '3', 'facial_hair': '1.0', 'notes': None, 'race_common': 'black', 'gender_common': 'man'}",,,,,,,,,,,,,,,,,,,,,,,,,,,,,,,,,,,,,,,,,,,,,,626705edcc1ef7741765872d,6266e20a583caa8581feb913,60242bdb4097360ad464addc,,,,,,,,,,,,,,,,,,,,
9180,626707f006b19921fe99d478,Chrome,1.0,main_task,1.0,1.0,chris,"4/25/2022, 2:43:28 PM",vqy1ync5e8534kcvchph,0.0-62.0,pilot_prolific_afc,37,man,149,0.0,white,25R,D,3715.0,"['../stimuli/version1_gray_lm/id149_25R_D.png', '../stimuli/version1_gray_lm/id063_00C_C.png', '../stimuli/version1_gray_lm/id063_25L_U.png']",401998.0,0.0,67.0,30.0,encoding,man,063,"[1, 2]",white,"['00C', '25L']","['C', 'U']",,"{'muct_id': '416', 'lighting': 'w', 'race_guess': 'w', 'gender_guess': 'm', 'quality': '3', 'quality_eyes': '3', 'quality_mouth': '3', 'quality_ears': '3', 'quality_hair': '3', 'quality_neck': '3', 'facial_hair': '2.0', 'notes': None, 'race_common': 'white', 'gender_common': 'man'}","{'muct_id': '203', 'lighting': 'u', 'race_guess': 'i', 'gender_guess': 'm', 'quality': '2', 'quality_eyes': '2', 'quality_mouth': '3', 'quality_ears': '3', 'quality_hair': '3', 'quality_neck': '3', 'facial_hair': '2.0', 'notes': 'mouth', 'race_common': 'white', 'gender_common': 'man'}",,,,,,,,,,,,,,,,,,,,,,,,,,,,,,,,,,,,,,,,,,,,,,626705edcc1ef7741765872d,6266e20a583caa8581feb913,60242bdb4097360ad464addc,,,,,,,,,,,,,,,,,,,,
9181,626707f506b19921fe99d479,Chrome,3.0,main_task,0.0,2.0,chris,"4/25/2022, 2:43:33 PM",vqy1ync5e8534kcvchph,0.0-64.0,pilot_prolific_afc,40,woman,148,1.0,white,25R,C,4140.0,"['../stimuli/version1_gray_lm/id054_25L_U.png', '../stimuli/version1_gray_lm/id148_25R_C.png', '../stimuli/version1_gray_lm/id054_00C_D.png']",406836.0,0.0,69.0,31.0,encoding,woman,054,"[0, 2]",white,"['25L', '00C']","['U', 'D']",,"{'muct_id': '415', 'lighting': 'w', 'race_guess': 'w', 'gender_guess': 'w', 'quality': '3', 'quality_eyes': '3', 'quality_mouth': '3', 'quality_ears': '3', 'quality_hair': '3', 'quality_neck': '3', 'facial_hair': '0.0', 'notes': None, 'race_common': 'white', 'gender_common': 'woman'}","{'muct_id': '80', 'lighting': 's', 'race_guess': 'b', 'gender_guess': 'w', 'quality': '3', 'quality_eyes': '3', 'quality_mouth': '3', 'quality_ears': '3', 'quality_hair': '3', 'quality_neck': '3', 'facial_hair': '0.0', 'notes': 'earrings', 'race_common': 'white', 'gender_common': 'woman'}",,,,,,,,,,,,,,,,,,,,,,,,,,,,,,,,,,,,,,,,,,,,,,626705edcc1ef7741765872d,6266e20a583caa8581feb913,60242bdb4097360ad464addc,,,,,,,,,,,,,,,,,,,,
9182,626707f906b19921fe99d47a,Chrome,2.0,main_task,1.0,2.0,chris,"4/25/2022, 2:43:37 PM",vqy1ync5e8534kcvchph,0.0-66.0,pilot_prolific_afc,39,man,132,1.0,black,50R,C,3416.0,"['../stimuli/version1_gray_lm/id064_25L_D.png', '../stimuli/version1_gray_lm/id132_50R_C.png', '../stimuli/version1_gray_lm/id064_00C_U.png']",410983.0,0.0,71.0,32.0,encoding,man,064,"[0, 2]",black,"['25L', '00C']","['D', 'U']",,"{'muct_id': '450', 'lighting': 'w', 'race_guess': 'b', 'gender_guess': 'm', 'quality': '3', 'quality_eyes': '3', 'quality_mouth': '3', 'quality_ears': '3', 'quality_hair': '3', 'quality_neck': '3', 'facial_hair': '4.0', 'notes': 'mouth', 'race_common': 'black', 'gender_common': 'man'}","{'muct_id': '204', 'lighting': 't', 'race_guess': 'b', 'gender_guess': 'm', 'quality': '3', 'quality_eyes': '3', 'quality_mouth': '3', 'quality_ears': '3', 'quality_hair': '3', 'quality_neck': '3', 'facial_hair': '1.0', 'notes': None, 'race_common': 'black', 'gender_common': 'man'}",,,,,,,,,,,,,,,,,,,,,,,,,,,,,,,,,,,,,,,,,,,,,,626705edcc1ef7741765872d,6266e20a583caa8581feb913,60242bdb4097360ad464addc,,,,,,,,,,,,,,,,,,,,
9183,626707fe06b19921fe99d47b,Chrome,3.0,main_task,0.0,2.0,chris,"4/25/2022, 2:43:43 PM",vqy1ync5e8534kcvchph,0.0-68.0,pilot_prolific_afc,40,woman,136,1.0,black,25R,U,4766.0,"['../stimuli/version1_gray_lm/id035_00C_C.png', '../stimuli/version1_gray_lm/id136_25R_U.png', '../stimuli/version1_gray_lm/id035_50L_D.png']",416446.0,0.0,73.0,33.0,encoding,woman,035,"[0, 2]",black,"['00C', '50L']","['C', 'D']",,"{'muct_id': '616', 'lighting': 'y', 'race_guess': 'b', 'gender_guess': 'w', 'quality': '3', 'quality_eyes': '3', 'quality_mouth': '3', 'quality_ears': '3', 'quality_hair': '3', 'quality_neck': '3', 'facial_hair': '0.0', 'notes': 'earrings', 'race_common': 'black', 'gender_common': 'woman'}","{'muct_id': '46', 'lighting': 'q', 'race_guess': 'b', 'gender_guess': 'w', 'quality': '3', 'quality_eyes': '3', 'quality_mouth': '3', 'quality_ears': '3', 'quality_hair': '3', 'quality_neck': '3', 'facial_hair': '0.0', 'notes': 'earrings', 'race_common': 'black', 'gender_common': 'woman'}",,,,,,,,,,,,,,,,,,,,,,,,,,,,,,,,,,,,,,,,,,,,,,626705edcc1ef7741765872d,6266e20a583caa8581feb913,60242bdb4097360ad464addc,,,,,,,,,,,,,,,,,,,,
9184,6267080306b19921fe99d47c,Chrome,2.0,main_task,1.0,2.0,chris,"4/25/2022, 2:43:47 PM",vqy1ync5e8534kcvchph,0.0-70.0,pilot_prolific_afc,39,woman,151,1.0,white,25L,D,3398.0,"['../stimuli/version1_gray_lm/id018_50R_C.png', '../stimuli/version1_gray_lm/id151_25L_D.png', '../stimuli/version1_gray_lm/id018_00C_U.png']",420729.0,0.0,75.0,34.0,encoding,woman,018,"[0, 2]",white,"['50R', '00C']","['C', 'U']",,"{'muct_id': '444', 'lighting': 'w', 'race_guess': 'w', 'gender_guess': 'w', 'quality': '3', 'quality_eyes': '3', 'quality_mouth': '3', 'quality_ears': '3', 'quality_hair': '3', 'quality_neck': '3', 'facial_hair': '0.0', 'notes': None, 'race_common': 'white', 'gender_common': 'woman'}","{'muct_id': '21', 'lighting': 'q', 'race_guess': 'w', 'gender_guess': 'w', 'quality': '3', 'quality_eyes': '3', 'quality_mouth': '3', 'quality_ears': '3', 'quality_hair': '3', 'quality_neck': '3', 'facial_hair': '0.0', 'notes': None, 'race_common': 'white', 'gender_common': 'woman'}",,,,,,,,,,,,,,,,,,,,,,,,,,,,,,,,,,,,,,,,,,,,,,626705edcc1ef7741765872d,6266e20a583caa8581feb913,60242bdb4097360ad464addc,,,,,,,,,,,,,,,,,,,,
9185,6267080706b19921fe99d47d,Chrome,1.0,main_task,1.0,1.0,chris,"4/25/2022, 2:43:51 PM",vqy1ync5e8534kcvchph,0.0-72.0,pilot_prolific_afc,37,woman,133,0.0,black,25L,D,3691.0,"['../stimuli/version1_gray_lm/id133_25L_D.png', '../stimuli/version1_gray_lm/id005_00C_C.png', '../stimuli/version1_gray_lm/id005_50R_U.png']",425018.0,0.0,77.0,35.0,encoding,woman,005,"[1, 2]",black,"['00C', '50R']","['C', 'U']",,"{'muct_id': '601', 'lighting': 'y', 'race_guess': 'b', 'gender_guess': 'w', 'quality': '3', 'quality_eyes': '3', 'quality_mouth': '3', 'quality_ears': '3', 'quality_hair': '3', 'quality_neck': '3', 'facial_hair': '0.0', 'notes': 'mouth', 'race_common': 'black', 'gender_common': 'woman'}","{'muct_id': '5', 'lighting': 'q', 'race_guess': 'b', 'gender_guess': 'w', 'quality': '3', 'quality_eyes': '3', 'quality_mouth': '3', 'quality_ears': '3', 'quality_hair': '3', 'quality_neck': '3', 'facial_hair': '0.0', 'notes': 'hat', 'race_common': 'black', 'gender_common': 'woman'}",,,,,,,,,,,,,,,,,,,,,,,,,,,,,,,,,,,,,,,,,,,,,,626705edcc1ef7741765872d,6266e20a583caa8581feb913,60242bdb4097360ad464addc,,,,,,,,,,,,,,,,,,,,
9186,6267080a06b19921fe99d47e,Chrome,1.0,main_task,1.0,1.0,chris,"4/25/2022, 2:43:54 PM",vqy1ync5e8534kcvchph,0.0-74.0,pilot_prolific_afc,37,woman,152,0.0,white,00C,D,2088.0,"['../stimuli/version1_gray_lm/id152_00C_D.png', '../stimuli/version1_gray_lm/id003_25L_U.png', '../stimuli/version1_gray_lm/id003_50R_C.png']",427858.0,0.0,79.0,36.0,encoding,woman,003,"[1, 2]",white,"['25L', '50R']","['U', 'C']",,"{'muct_id': '446', 'lighting': 'w', 'race_guess': 'w', 'gender_guess': 'w', 'quality': '3', 'quality_eyes': '3', 'quality_mouth': '3', 'quality_ears': '3', 'quality_hair': '3', 'quality_neck': '3', 'facial_hair': '0.0', 'notes': None, 'race_common': 'white', 'gender_common': 'woman'}","{'muct_id': '3', 'lighting': 's', 'race_guess': 'i', 'gender_guess': 'w', 'quality': '2', 'quality_eyes': '3', 'quality_mouth': '3', 'quality_ears': '3', 'quality_hair': '2', 'quality_neck': '3', 'facial_hair': '0.0', 'notes': 'hair', 'race_common': 'white', 'gender_common': 'woman'}",,,,,,,,,,,,,,,,,,,,,,,,,,,,,,,,,,,,,,,,,,,,,,626705edcc1ef7741765872d,6266e20a583caa8581feb913,60242bdb4097360ad464addc,,,,,,,,,,,,,,,,,,,,
9187,6267081806b19921fe99d47f,Chrome,,main_task,,,chris,"4/25/2022, 2:44:08 PM",,0.0-76.0,pilot_prolific_afc,,,,,,,,13213.0,"<p style='font-size: 150%'><b>You have finished Part 1!</b></p><p>Nice job! On this section, you averaged <b>83% accuracy</b>.</p><p>You're on track to earn a good bonus. Keep up the good work!</p><p>Click 'Next' to continue to Part 2.</p>",441666.0,,81.0,,bonus_update,,,,,,,,,,0,encoding,2.718333333333334,,,,,,,,,,,,,,,,,,,,,,,,,,,,,,,,,,,,,,,,,,,626705edcc1ef7741765872d,6266e20a583caa8581feb913,60242bdb4097360ad464addc,,,,,,,,,,,,,,,,,,,,
9188,6267083906b19921fe99d480,Chrome,2.0,main_task,1.0,2.0,chris,"4/25/2022, 2:44:41 PM",vqy1ync5e8534kcvchph,0.0-78.0-0.0,pilot_prolific_afc,39,,,1877.0,,,,2325.0,"['../stimuli/objectome/2856.jpeg', '../stimuli/objectome/1877.jpeg', '../stimuli/objectome/2857.jpeg']",474454.0,0.0,83.0,1.0,filler,,,,,,,,,,,,,planes,_19_flyingBoat,planes,_19_flyingBoat,within,"{'1': None, '2': None, '3': None}",planes,"[2856, 2857]",mig29,V3,,,,,,,,,,,,,,,,,,,,,,,,,,,,,,,,,626705edcc1ef7741765872d,6266e20a583caa8581feb913,60242bdb4097360ad464addc,,,,,,,,,,,,,,,,,,,,
9189,6267083c06b19921fe99d481,Chrome,3.0,main_task,1.0,3.0,chris,"4/25/2022, 2:44:44 PM",vqy1ync5e8534kcvchph,0.0-79.0-0.0,pilot_prolific_afc,40,,,1285.0,,,,1884.0,"['../stimuli/objectome/1381.jpeg', '../stimuli/objectome/1390.jpeg', '../stimuli/objectome/1285.jpeg']",477602.0,0.0,85.0,2.0,filler,,,,,,,,,,,,,chairs,_004,chairs,_004,within,"{'1': None, '2': None, '3': None}",chairs,"[1381, 1390]",_010,V3,,,,,,,,,,,,,,,,,,,,,,,,,,,,,,,,,626705edcc1ef7741765872d,6266e20a583caa8581feb913,60242bdb4097360ad464addc,,,,,,,,,,,,,,,,,,,,
9190,6267083e06b19921fe99d482,Chrome,3.0,main_task,1.0,3.0,chris,"4/25/2022, 2:44:46 PM",vqy1ync5e8534kcvchph,0.0-80.0-0.0,pilot_prolific_afc,40,,,234.0,,,,1629.0,"['../stimuli/objectome/181.jpeg', '../stimuli/objectome/186.jpeg', '../stimuli/objectome/234.jpeg']",480050.0,0.0,87.0,3.0,filler,,,,,,,,,,,,,chairs,_033,chairs,_033,within,"{'1': None, '2': None, '3': None}",chairs,"[181, 186]",_010,V0,,,,,,,,,,,,,,,,,,,,,,,,,,,,,,,,,626705edcc1ef7741765872d,6266e20a583caa8581feb913,60242bdb4097360ad464addc,,,,,,,,,,,,,,,,,,,,
9191,6267084906b19921fe99d483,Chrome,2.0,main_task,1.0,2.0,chris,"4/25/2022, 2:44:57 PM",vqy1ync5e8534kcvchph,0.0-82.0,pilot_prolific_afc,39,,,2827.0,,,,2006.0,"['../stimuli/objectome/3016.jpeg', '../stimuli/objectome/2827.jpeg', '../stimuli/objectome/3010.jpeg']",490699.0,0.0,90.0,4.0,filler,,,,,,,,,,,,,planes,junkers88,planes,junkers88,within,"{'1': None, '2': None, '3': None}",planes,"[3016, 3010]",sopwith,V3,,,,,,,,,,,,,,,,,,,,,,,,,,,,,,,,,626705edcc1ef7741765872d,6266e20a583caa8581feb913,60242bdb4097360ad464addc,,,,,,,,,,,,,,,,,,,,
9192,6267084e06b19921fe99d484,Chrome,2.0,main_task,1.0,2.0,chris,"4/25/2022, 2:45:02 PM",vqy1ync5e8534kcvchph,0.0-84.0,pilot_prolific_afc,39,,,3016.0,,,,3872.0,"['../stimuli/objectome/2802.jpeg', '../stimuli/objectome/3016.jpeg', '../stimuli/objectome/2824.jpeg']",495782.0,0.0,92.0,5.0,filler,,,,,,,,,,,,,planes,sopwith,planes,sopwith,within,"{'1': None, '2': None, '3': None}",planes,"[2802, 2824]",junkers88,V3,,,,,,,,,,,,,,,,,,,,,,,,,,,,,,,,,626705edcc1ef7741765872d,6266e20a583caa8581feb913,60242bdb4097360ad464addc,,,,,,,,,,,,,,,,,,,,
9193,6267085206b19921fe99d485,Chrome,3.0,main_task,1.0,3.0,chris,"4/25/2022, 2:45:06 PM",vqy1ync5e8534kcvchph,0.0-86.0,pilot_prolific_afc,40,,,1873.0,,,,3104.0,"['../stimuli/objectome/2838.jpeg', '../stimuli/objectome/2813.jpeg', '../stimuli/objectome/1873.jpeg']",499697.0,0.0,94.0,6.0,filler,,,,,,,,,,,,,planes,_19_flyingBoat,planes,_19_flyingBoat,within,"{'1': None, '2': None, '3': None}",planes,"[2838, 2813]",junkers88,V3,,,,,,,,,,,,,,,,,,,,,,,,,,,,,,,,,626705edcc1ef7741765872d,6266e20a583caa8581feb913,60242bdb4097360ad464addc,,,,,,,,,,,,,,,,,,,,
9194,6267085606b19921fe99d486,Chrome,1.0,main_task,1.0,1.0,chris,"4/25/2022, 2:45:10 PM",vqy1ync5e8534kcvchph,0.0-88.0,pilot_prolific_afc,37,,,1524.0,,,,3612.0,"['../stimuli/objectome/1524.jpeg', '../stimuli/objectome/1403.jpeg', '../stimuli/objectome/1417.jpeg']",504050.0,0.0,96.0,7.0,filler,,,,,,,,,,,,,chairs,_031,chairs,_031,within,"{'1': None, '2': None, '3': None}",chairs,"[1403, 1417]",_011,V3,,,,,,,,,,,,,,,,,,,,,,,,,,,,,,,,,626705edcc1ef7741765872d,6266e20a583caa8581feb913,60242bdb4097360ad464addc,,,,,,,,,,,,,,,,,,,,
9195,6267085806b19921fe99d487,Chrome,3.0,main_task,1.0,3.0,chris,"4/25/2022, 2:45:12 PM",vqy1ync5e8534kcvchph,0.0-90.0,pilot_prolific_afc,40,,,1223.0,,,,1457.0,"['../stimuli/objectome/2261.jpeg', '../stimuli/objectome/2254.jpeg', '../stimuli/objectome/1223.jpeg']",506122.0,0.0,98.0,8.0,filler,,,,,,,,,,,,,animals,TURTLE_L,animals,TURTLE_L,within,"{'1': None, '2': None, '3': None}",animals,"[2261, 2254]",breed_pug,V3,,,,,,,,,,,,,,,,,,,,,,,,,,,,,,,,,626705edcc1ef7741765872d,6266e20a583caa8581feb913,60242bdb4097360ad464addc,,,,,,,,,,,,,,,,,,,,
9196,6267085b06b19921fe99d488,Chrome,2.0,main_task,1.0,2.0,chris,"4/25/2022, 2:45:15 PM",vqy1ync5e8534kcvchph,0.0-92.0,pilot_prolific_afc,39,,,3011.0,,,,2253.0,"['../stimuli/objectome/1612.jpeg', '../stimuli/objectome/3011.jpeg', '../stimuli/objectome/1601.jpeg']",508996.0,0.0,100.0,9.0,filler,,,,,,,,,,,,,planes,sopwith,planes,sopwith,within,"{'1': None, '2': None, '3': None}",planes,"[1612, 1601]",_05_future,V3,,,,,,,,,,,,,,,,,,,,,,,,,,,,,,,,,626705edcc1ef7741765872d,6266e20a583caa8581feb913,60242bdb4097360ad464addc,,,,,,,,,,,,,,,,,,,,
9197,6267085d06b19921fe99d489,Chrome,1.0,main_task,1.0,1.0,chris,"4/25/2022, 2:45:18 PM",vqy1ync5e8534kcvchph,0.0-94.0,pilot_prolific_afc,37,,,970.0,,,,1872.0,"['../stimuli/objectome/970.jpeg', '../stimuli/objectome/927.jpeg', '../stimuli/objectome/936.jpeg']",511442.0,0.0,102.0,10.0,filler,,,,,,,,,,,,,animals,LIONESS,animals,LIONESS,within,"{'1': None, '2': None, '3': None}",animals,"[927, 936]",GORILLA,V3,,,,,,,,,,,,,,,,,,,,,,,,,,,,,,,,,626705edcc1ef7741765872d,6266e20a583caa8581feb913,60242bdb4097360ad464addc,,,,,,,,,,,,,,,,,,,,
9198,6267086406b19921fe99d48a,Chrome,2.0,main_task,1.0,2.0,chris,"4/25/2022, 2:45:24 PM",vqy1ync5e8534kcvchph,0.0-96.0,pilot_prolific_afc,39,,,1376.0,,,,5575.0,"['../stimuli/objectome/1321.jpeg', '../stimuli/objectome/1376.jpeg', '../stimuli/objectome/1346.jpeg']",517659.0,0.0,104.0,11.0,filler,,,,,,,,,,,,,chairs,_010,chairs,_010,within,"{'1': None, '2': None, '3': None}",chairs,"[1321, 1346]",_008,V3,,,,,,,,,,,,,,,,,,,,,,,,,,,,,,,,,626705edcc1ef7741765872d,6266e20a583caa8581feb913,60242bdb4097360ad464addc,,,,,,,,,,,,,,,,,,,,
9199,6267086a06b19921fe99d48b,Chrome,1.0,main_task,1.0,1.0,chris,"4/25/2022, 2:45:30 PM",vqy1ync5e8534kcvchph,0.0-98.0,pilot_prolific_afc,37,,,3024.0,,,,5573.0,"['../stimuli/objectome/3024.jpeg', '../stimuli/objectome/2980.jpeg', '../stimuli/objectome/2979.jpeg']",523826.0,0.0,106.0,12.0,filler,,,,,,,,,,,,,planes,sopwith,planes,sopwith,within,"{'1': None, '2': None, '3': None}",planes,"[2980, 2979]",rdbarren,V3,,,,,,,,,,,,,,,,,,,,,,,,,,,,,,,,,626705edcc1ef7741765872d,6266e20a583caa8581feb913,60242bdb4097360ad464addc,,,,,,,,,,,,,,,,,,,,
9200,6267086d06b19921fe99d48c,Chrome,2.0,main_task,1.0,2.0,chris,"4/25/2022, 2:45:33 PM",vqy1ync5e8534kcvchph,0.0-100.0,pilot_prolific_afc,39,,,1272.0,,,,2657.0,"['../stimuli/objectome/1579.jpeg', '../stimuli/objectome/1272.jpeg', '../stimuli/objectome/1585.jpeg']",527197.0,0.0,108.0,13.0,filler,,,,,,,,,,,,,chairs,_001,chairs,_001,within,"{'1': None, '2': None, '3': None}",chairs,"[1579, 1585]",_033,V3,,,,,,,,,,,,,,,,,,,,,,,,,,,,,,,,,626705edcc1ef7741765872d,6266e20a583caa8581feb913,60242bdb4097360ad464addc,,,,,,,,,,,,,,,,,,,,
9201,6267087006b19921fe99d48d,Chrome,2.0,main_task,1.0,2.0,chris,"4/25/2022, 2:45:36 PM",vqy1ync5e8534kcvchph,0.0-102.0,pilot_prolific_afc,39,,,1582.0,,,,1748.0,"['../stimuli/objectome/1523.jpeg', '../stimuli/objectome/1582.jpeg', '../stimuli/objectome/1549.jpeg']",529678.0,0.0,110.0,14.0,filler,,,,,,,,,,,,,chairs,_033,chairs,_033,within,"{'1': None, '2': None, '3': None}",chairs,"[1523, 1549]",_031,V3,,,,,,,,,,,,,,,,,,,,,,,,,,,,,,,,,626705edcc1ef7741765872d,6266e20a583caa8581feb913,60242bdb4097360ad464addc,,,,,,,,,,,,,,,,,,,,
9202,6267087006b19921fe99d48e,Chrome,1.0,main_task,1.0,1.0,chris,"4/25/2022, 4:45:36 PM",6edmwrn8v00wf2oo2ojd,0.0-2.0-0.0,pilot_prolific_afc,37,man,107,0.0,latinx,25R,U,2891.0,"['../stimuli/version1_gray_lm/id107_25R_U.png', '../stimuli/version1_gray_lm/id108_00C_C.png', '../stimuli/version1_gray_lm/id108_25L_D.png']",78489.0,0.0,2.0,1.0,encoding_practice,woman,108,"[1, 2]",latinx,"['00C', '25L']","['C', 'D']",,,,,,,,,,,,,,,,,,,,,,,,,,,,,,,,,,,,,,,,,,,,,,,,,626707fbe807b577989c2c68,6266e20a583caa8581feb914,60db6c099c34abc715a1803e,,,,,,,,,,,,,,,,,,,,
9203,6267087206b19921fe99d48f,Chrome,2.0,main_task,1.0,2.0,chris,"4/25/2022, 2:45:38 PM",vqy1ync5e8534kcvchph,0.0-104.0,pilot_prolific_afc,39,,,2276.0,,,,1455.0,"['../stimuli/objectome/2094.jpeg', '../stimuli/objectome/2276.jpeg', '../stimuli/objectome/2091.jpeg']",531778.0,0.0,112.0,15.0,filler,,,,,,,,,,,,,animals,breed_pug,animals,breed_pug,within,"{'1': None, '2': None, '3': None}",animals,"[2094, 2091]",bear,V3,,,,,,,,,,,,,,,,,,,,,,,,,,,,,,,,,626705edcc1ef7741765872d,6266e20a583caa8581feb913,60242bdb4097360ad464addc,,,,,,,,,,,,,,,,,,,,
9204,6267087406b19921fe99d490,Chrome,1.0,main_task,1.0,1.0,chris,"4/25/2022, 2:45:40 PM",vqy1ync5e8534kcvchph,0.0-106.0,pilot_prolific_afc,37,,,931.0,,,,1700.0,"['../stimuli/objectome/931.jpeg', '../stimuli/objectome/2761.jpeg', '../stimuli/objectome/2797.jpeg']",534138.0,0.0,114.0,16.0,filler,,,,,,,,,,,,,animals,GORILLA,animals,GORILLA,within,"{'1': None, '2': None, '3': None}",animals,"[2761, 2797]",hedgehog,V3,,,,,,,,,,,,,,,,,,,,,,,,,,,,,,,,,626705edcc1ef7741765872d,6266e20a583caa8581feb913,60242bdb4097360ad464addc,,,,,,,,,,,,,,,,,,,,
9205,6267087506b19921fe99d491,Chrome,1.0,main_task,1.0,1.0,chris,"4/25/2022, 4:45:41 PM",6edmwrn8v00wf2oo2ojd,0.0-2.1-0.1,pilot_prolific_afc,37,man,107,0.0,latinx,25L,C,2679.0,"['../stimuli/version1_gray_lm/id107_25L_C.png', '../stimuli/version1_gray_lm/id106_50R_U.png', '../stimuli/version1_gray_lm/id106_00C_D.png']",83275.0,0.0,4.0,2.0,encoding_practice,woman,106,"[1, 2]",latinx,"['50R', '00C']","['U', 'D']",,,,,,,,,,,,,,,,,,,,,,,,,,,,,,,,,,,,,,,,,,,,,,,,,626707fbe807b577989c2c68,6266e20a583caa8581feb914,60db6c099c34abc715a1803e,,,,,,,,,,,,,,,,,,,,
9206,6267087806b19921fe99d492,Chrome,2.0,main_task,1.0,2.0,chris,"4/25/2022, 2:45:44 PM",vqy1ync5e8534kcvchph,0.0-108.0,pilot_prolific_afc,39,,,367.0,,,,2711.0,"['../stimuli/objectome/149.jpeg', '../stimuli/objectome/367.jpeg', '../stimuli/objectome/146.jpeg']",537552.0,0.0,116.0,17.0,filler,,,,,,,,,,,,,animals,bear,animals,bear,within,"{'1': None, '2': None, '3': None}",animals,"[149, 146]",TURTLE_L,V0,,,,,,,,,,,,,,,,,,,,,,,,,,,,,,,,,626705edcc1ef7741765872d,6266e20a583caa8581feb913,60242bdb4097360ad464addc,,,,,,,,,,,,,,,,,,,,
9207,6267087b06b19921fe99d493,Chrome,2.0,main_task,1.0,2.0,chris,"4/25/2022, 2:45:47 PM",vqy1ync5e8534kcvchph,0.0-110.0,pilot_prolific_afc,39,,,1376.0,,,,2245.0,"['../stimuli/objectome/1321.jpeg', '../stimuli/objectome/1376.jpeg', '../stimuli/objectome/1346.jpeg']",540491.0,0.0,118.0,18.0,filler,,,,,,,,,,,,,chairs,_010,chairs,_010,within,"{'1': None, '2': None, '3': None}",chairs,"[1321, 1346]",_008,V3,,,,,,,,,,,,,,,,,,,,,,,,,,,,,,,,,626705edcc1ef7741765872d,6266e20a583caa8581feb913,60242bdb4097360ad464addc,,,,,,,,,,,,,,,,,,,,
9208,6267087b06b19921fe99d494,Chrome,2.0,main_task,1.0,2.0,chris,"4/25/2022, 4:45:47 PM",6edmwrn8v00wf2oo2ojd,0.0-2.2-0.2,pilot_prolific_afc,39,woman,108,1.0,latinx,25L,C,4791.0,"['../stimuli/version1_gray_lm/id107_00C_D.png', '../stimuli/version1_gray_lm/id108_25L_C.png', '../stimuli/version1_gray_lm/id107_25R_U.png']",89548.0,0.0,6.0,3.0,encoding_practice,man,107,"[0, 2]",latinx,"['00C', '25R']","['D', 'U']",1.0,,,,,,,,,,,,,,,,,,,,,,,,,,,,,,,,,,,,,,,,,,,,,,,,626707fbe807b577989c2c68,6266e20a583caa8581feb914,60db6c099c34abc715a1803e,,,,,,,,,,,,,,,,,,,,
9209,6267087d06b19921fe99d495,Chrome,2.0,main_task,1.0,2.0,chris,"4/25/2022, 2:45:49 PM",vqy1ync5e8534kcvchph,0.0-112.0,pilot_prolific_afc,39,,,1223.0,,,,1311.0,"['../stimuli/objectome/2250.jpeg', '../stimuli/objectome/1223.jpeg', '../stimuli/objectome/2254.jpeg']",542517.0,0.0,120.0,19.0,filler,,,,,,,,,,,,,animals,TURTLE_L,animals,TURTLE_L,within,"{'1': None, '2': None, '3': None}",animals,"[2250, 2254]",breed_pug,V3,,,,,,,,,,,,,,,,,,,,,,,,,,,,,,,,,626705edcc1ef7741765872d,6266e20a583caa8581feb913,60242bdb4097360ad464addc,,,,,,,,,,,,,,,,,,,,
9210,6267087f06b19921fe99d496,Chrome,1.0,main_task,1.0,1.0,chris,"4/25/2022, 2:45:51 PM",vqy1ync5e8534kcvchph,0.0-114.0,pilot_prolific_afc,37,,,911.0,,,,1369.0,"['../stimuli/objectome/911.jpeg', '../stimuli/objectome/2140.jpeg', '../stimuli/objectome/2139.jpeg']",544459.0,0.0,122.0,20.0,filler,,,,,,,,,,,,,animals,ELEPHANT_M,animals,ELEPHANT_M,within,"{'1': None, '2': None, '3': None}",animals,"[2140, 2139]",blCow,V3,,,,,,,,,,,,,,,,,,,,,,,,,,,,,,,,,626705edcc1ef7741765872d,6266e20a583caa8581feb913,60242bdb4097360ad464addc,,,,,,,,,,,,,,,,,,,,
9211,6267088306b19921fe99d497,Chrome,1.0,main_task,1.0,1.0,chris,"4/25/2022, 4:45:55 PM",6edmwrn8v00wf2oo2ojd,0.0-4.0,pilot_prolific_afc,37,woman,103,0.0,black,00C,U,3203.0,"['../stimuli/version1_gray_lm/id103_00C_U.png', '../stimuli/version1_gray_lm/id016_25L_C.png', '../stimuli/version1_gray_lm/id016_25R_D.png']",97508.0,0.0,9.0,1.0,encoding,woman,016,"[1, 2]",black,"['25L', '25R']","['C', 'D']",,"{'muct_id': '285', 'lighting': 'v', 'race_guess': 'b', 'gender_guess': 'w', 'quality': '3', 'quality_eyes': '3', 'quality_mouth': '3', 'quality_ears': '3', 'quality_hair': '3', 'quality_neck': '3', 'facial_hair': '0.0', 'notes': 'earrings', 'race_common': 'black', 'gender_common': 'woman'}","{'muct_id': '18', 'lighting': 'q', 'race_guess': 'b', 'gender_guess': 'w', 'quality': '3', 'quality_eyes': '3', 'quality_mouth': '3', 'quality_ears': '3', 'quality_hair': '3', 'quality_neck': '3', 'facial_hair': '0.0', 'notes': 'earrings', 'race_common': 'black', 'gender_common': 'woman'}",,,,,,,,,,,,,,,,,,,,,,,,,,,,,,,,,,,,,,,,,,,,,,626707fbe807b577989c2c68,6266e20a583caa8581feb914,60db6c099c34abc715a1803e,,,,,,,,,,,,,,,,,,,,
9212,6267088706b19921fe99d498,Chrome,,main_task,,,chris,"4/25/2022, 2:46:00 PM",,0.0-116.0,pilot_prolific_afc,,,,,,,,8109.89999999851,"<p style='font-size: 150%'><b>You have finished Part 2!</b></p><p>Nice job! On this section, you averaged <b>100% accuracy</b>.</p><p>You're on track to earn a good bonus. Keep up the good work!</p><p>Click 'Next' to continue to Part 3.</p>",553402.0,,124.0,,bonus_update,,,,,,,,,,0,filler,3.7975000000000008,,,,,,,,,,,,,,,,,,,,,,,,,,,,,,,,,,,,,,,,,,,626705edcc1ef7741765872d,6266e20a583caa8581feb913,60242bdb4097360ad464addc,,,,,,,,,,,,,,,,,,,,
9213,6267088c06b19921fe99d499,Chrome,3.0,main_task,1.0,3.0,chris,"4/25/2022, 4:46:04 PM",6edmwrn8v00wf2oo2ojd,0.0-6.0,pilot_prolific_afc,40,woman,101,2.0,white,00C,D,8029.0,"['../stimuli/version1_gray_lm/id007_50L_U.png', '../stimuli/version1_gray_lm/id007_50R_C.png', '../stimuli/version1_gray_lm/id101_00C_D.png']",106770.0,0.0,11.0,2.0,encoding,woman,007,"[0, 1]",white,"['50L', '50R']","['U', 'C']",,"{'muct_id': '281', 'lighting': 't', 'race_guess': 'w', 'gender_guess': 'w', 'quality': '3', 'quality_eyes': '3', 'quality_mouth': '3', 'quality_ears': '3', 'quality_hair': '3', 'quality_neck': '3', 'facial_hair': '0.0', 'notes': None, 'race_common': 'white', 'gender_common': 'woman'}","{'muct_id': '7', 'lighting': 's', 'race_guess': 'u', 'gender_guess': 'w', 'quality': '3', 'quality_eyes': '3', 'quality_mouth': '3', 'quality_ears': '3', 'quality_hair': '3', 'quality_neck': '3', 'facial_hair': '0.0', 'notes': None, 'race_common': 'white', 'gender_common': 'woman'}",,,,,,,,,,,,,,,,,,,,,,,,,,,,,,,,,,,,,,,,,,,,,,626707fbe807b577989c2c68,6266e20a583caa8581feb914,60db6c099c34abc715a1803e,,,,,,,,,,,,,,,,,,,,
9214,6267089606b19921fe99d49a,Chrome,2.0,main_task,1.0,2.0,chris,"4/25/2022, 4:46:14 PM",6edmwrn8v00wf2oo2ojd,0.0-8.0,pilot_prolific_afc,39,man,105,1.0,black,00C,U,8386.0,"['../stimuli/version1_gray_lm/id021_25L_D.png', '../stimuli/version1_gray_lm/id105_00C_U.png', '../stimuli/version1_gray_lm/id021_50R_C.png']",116117.0,0.0,13.0,3.0,encoding,man,021,"[0, 2]",black,"['25L', '50R']","['D', 'C']",,"{'muct_id': '290', 'lighting': 't', 'race_guess': 'b', 'gender_guess': 'm', 'quality': '3', 'quality_eyes': '3', 'quality_mouth': '3', 'quality_ears': '3', 'quality_hair': '3', 'quality_neck': '3', 'facial_hair': '2.0', 'notes': None, 'race_common': 'black', 'gender_common': 'man'}","{'muct_id': '25', 'lighting': 'r', 'race_guess': 'b', 'gender_guess': 'm', 'quality': '3', 'quality_eyes': '3', 'quality_mouth': '3', 'quality_ears': '3', 'quality_hair': '3', 'quality_neck': '3', 'facial_hair': '2.0', 'notes': None, 'race_common': 'black', 'gender_common': 'man'}",,,,,,,,,,,,,,,,,,,,,,,,,,,,,,,,,,,,,,,,,,,,,,626707fbe807b577989c2c68,6266e20a583caa8581feb914,60db6c099c34abc715a1803e,,,,,,,,,,,,,,,,,,,,
9215,6267089b06b19921fe99d49b,Chrome,3.0,main_task,1.0,3.0,chris,"4/25/2022, 4:46:19 PM",6edmwrn8v00wf2oo2ojd,0.0-10.0,pilot_prolific_afc,40,man,100,2.0,white,25R,C,4747.0,"['../stimuli/version1_gray_lm/id032_00C_U.png', '../stimuli/version1_gray_lm/id032_25L_D.png', '../stimuli/version1_gray_lm/id100_25R_C.png']",121768.0,0.0,15.0,4.0,encoding,man,032,"[0, 1]",white,"['00C', '25L']","['U', 'D']",,"{'muct_id': '280', 'lighting': 'u', 'race_guess': 'w', 'gender_guess': 'm', 'quality': '3', 'quality_eyes': '3', 'quality_mouth': '3', 'quality_ears': '3', 'quality_hair': '3', 'quality_neck': '3', 'facial_hair': '0.0', 'notes': None, 'race_common': 'white', 'gender_common': 'man'}","{'muct_id': '43', 'lighting': 'q', 'race_guess': 'w', 'gender_guess': 'm', 'quality': '3', 'quality_eyes': '3', 'quality_mouth': '3', 'quality_ears': '3', 'quality_hair': '3', 'quality_neck': '3', 'facial_hair': '0.0', 'notes': None, 'race_common': 'white', 'gender_common': 'man'}",,,,,,,,,,,,,,,,,,,,,,,,,,,,,,,,,,,,,,,,,,,,,,626707fbe807b577989c2c68,6266e20a583caa8581feb914,60db6c099c34abc715a1803e,,,,,,,,,,,,,,,,,,,,
9216,626708a606b19921fe99d49c,Chrome,,main_task,0.0,1.0,chris,"4/25/2022, 4:46:30 PM",6edmwrn8v00wf2oo2ojd,0.0-12.0,pilot_prolific_afc,,woman,111,0.0,black,00C,D,0.0,"['../stimuli/version1_gray_lm/id111_00C_D.png', '../stimuli/version1_gray_lm/id077_25L_U.png', '../stimuli/version1_gray_lm/id077_25R_C.png']",132644.0,1.0,17.0,5.0,encoding,woman,077,"[1, 2]",black,"['25L', '25R']","['U', 'C']",,"{'muct_id': '405', 'lighting': 'w', 'race_guess': 'b', 'gender_guess': 'w', 'quality': '3', 'quality_eyes': '3', 'quality_mouth': '3', 'quality_ears': '3', 'quality_hair': '3', 'quality_neck': '3', 'facial_hair': '0.0', 'notes': 'hair earrings', 'race_common': 'black', 'gender_common': 'woman'}","{'muct_id': '235', 'lighting': 'u', 'race_guess': 'b', 'gender_guess': 'w', 'quality': '3', 'quality_eyes': '3', 'quality_mouth': '3', 'quality_ears': '3', 'quality_hair': '3', 'quality_neck': '3', 'facial_hair': '0.0', 'notes': 'earrings', 'race_common': 'black', 'gender_common': 'woman'}",,,,,,,,,,,,,,,,,,,,,,,,,,,,,,,,,,,,,,,,,,,,,,626707fbe807b577989c2c68,6266e20a583caa8581feb914,60db6c099c34abc715a1803e,,,,,,,,,,,,,,,,,,,,
9217,626708ab06b19921fe99d49d,Chrome,2.0,main_task,1.0,2.0,chris,"4/25/2022, 4:46:35 PM",6edmwrn8v00wf2oo2ojd,0.0-14.0,pilot_prolific_afc,39,woman,102,1.0,white,00C,U,3530.0,"['../stimuli/version1_gray_lm/id084_50L_D.png', '../stimuli/version1_gray_lm/id102_00C_U.png', '../stimuli/version1_gray_lm/id084_50R_C.png']",137009.0,0.0,19.0,6.0,encoding,woman,084,"[0, 2]",white,"['50L', '50R']","['D', 'C']",,"{'muct_id': '283', 'lighting': 't', 'race_guess': 'i', 'gender_guess': 'w', 'quality': '3', 'quality_eyes': '3', 'quality_mouth': '3', 'quality_ears': '3', 'quality_hair': '3', 'quality_neck': '3', 'facial_hair': '0.0', 'notes': 'pottu', 'race_common': 'white', 'gender_common': 'woman'}","{'muct_id': '248', 'lighting': 'u', 'race_guess': 'w', 'gender_guess': 'w', 'quality': '3', 'quality_eyes': '3', 'quality_mouth': '3', 'quality_ears': '3', 'quality_hair': '3', 'quality_neck': '3', 'facial_hair': '0.0', 'notes': None, 'race_common': 'white', 'gender_common': 'woman'}",,,,,,,,,,,,,,,,,,,,,,,,,,,,,,,,,,,,,,,,,,,,,,626707fbe807b577989c2c68,6266e20a583caa8581feb914,60db6c099c34abc715a1803e,,,,,,,,,,,,,,,,,,,,
9218,626708b006b19921fe99d49e,Chrome,3.0,main_task,1.0,3.0,chris,"4/25/2022, 4:46:40 PM",6edmwrn8v00wf2oo2ojd,0.0-16.0,pilot_prolific_afc,40,man,112,2.0,black,50R,C,4362.0,"['../stimuli/version1_gray_lm/id057_50L_D.png', '../stimuli/version1_gray_lm/id057_00C_U.png', '../stimuli/version1_gray_lm/id112_50R_C.png']",142100.0,0.0,21.0,7.0,encoding,man,057,"[0, 1]",black,"['50L', '00C']","['D', 'U']",,"{'muct_id': '406', 'lighting': 'w', 'race_guess': 'b', 'gender_guess': 'm', 'quality': '3', 'quality_eyes': '3', 'quality_mouth': '3', 'quality_ears': '3', 'quality_hair': '3', 'quality_neck': '3', 'facial_hair': '1.0', 'notes': None, 'race_common': 'black', 'gender_common': 'man'}","{'muct_id': '83', 'lighting': 'r', 'race_guess': 'b', 'gender_guess': 'm', 'quality': '3', 'quality_eyes': '3', 'quality_mouth': '3', 'quality_ears': '3', 'quality_hair': '3', 'quality_neck': '3', 'facial_hair': '3.0', 'notes': None, 'race_common': 'black', 'gender_common': 'man'}",,,,,,,,,,,,,,,,,,,,,,,,,,,,,,,,,,,,,,,,,,,,,,626707fbe807b577989c2c68,6266e20a583caa8581feb914,60db6c099c34abc715a1803e,,,,,,,,,,,,,,,,,,,,
9219,626708b506b19921fe99d49f,Chrome,,main_task,1.0,1.0,chris,"4/25/2022, 2:46:45 PM",vqy1ync5e8534kcvchph,0.0-118.0-0.0,pilot_prolific_afc,37,,,,,,,2571.5999999940395,<p><img src='../stimuli/version1_gray_lm/id128_00C_D.png'></img><img src='../stimuli/version1_gray_lm/id057_50L_D.png'></img></p>,599108.0,,126.0,1.0,retrieval_practice,,,,,,,,,,,,,,,,,,,,,,,,,,,,,,,,,,,,,,,,,,,,,,,,,,,,,,,626705edcc1ef7741765872d,6266e20a583caa8581feb913,60242bdb4097360ad464addc,"{'muct_id': '83', 'lighting': 'r', 'race_guess': 'b', 'gender_guess': 'm', 'quality': '3', 'quality_eyes': '3', 'quality_mouth': '3', 'quality_ears': '3', 'quality_hair': '3', 'quality_neck': '3', 'facial_hair': '3.0', 'notes': None, 'race_common': 'black', 'gender_common': 'man'}","{'muct_id': '436', 'lighting': 'w', 'race_guess': 'b', 'gender_guess': 'm', 'quality': '3', 'quality_eyes': '3', 'quality_mouth': '3', 'quality_ears': '3', 'quality_hair': '3', 'quality_neck': '3', 'facial_hair': '3.0', 'notes': 'beard', 'race_common': 'black', 'gender_common': 'man'}",man,057,1.0,black,50L,D,056,oddity,man,128,0.0,28.0,00C,D,black,00C,D,"['../stimuli/version1_gray_lm/id128_00C_D.png', '../stimuli/version1_gray_lm/id057_50L_D.png']"
9220,626708b806b19921fe99d4a0,Chrome,3.0,main_task,1.0,3.0,chris,"4/25/2022, 4:46:48 PM",6edmwrn8v00wf2oo2ojd,0.0-18.0,pilot_prolific_afc,40,man,104,2.0,white,00C,D,7298.0,"['../stimuli/version1_gray_lm/id061_25R_C.png', '../stimuli/version1_gray_lm/id061_50L_U.png', '../stimuli/version1_gray_lm/id104_00C_D.png']",150135.0,0.0,23.0,8.0,encoding,man,061,"[0, 1]",white,"['25R', '50L']","['C', 'U']",,"{'muct_id': '287', 'lighting': 't', 'race_guess': 'w', 'gender_guess': 'm', 'quality': '3', 'quality_eyes': '3', 'quality_mouth': '3', 'quality_ears': '3', 'quality_hair': '3', 'quality_neck': '3', 'facial_hair': '2.0', 'notes': None, 'race_common': 'white', 'gender_common': 'man'}","{'muct_id': '89', 'lighting': 'r', 'race_guess': 'w', 'gender_guess': 'm', 'quality': '3', 'quality_eyes': '3', 'quality_mouth': '3', 'quality_ears': '3', 'quality_hair': '3', 'quality_neck': '3', 'facial_hair': '2.0', 'notes': None, 'race_common': 'white', 'gender_common': 'man'}",,,,,,,,,,,,,,,,,,,,,,,,,,,,,,,,,,,,,,,,,,,,,,626707fbe807b577989c2c68,6266e20a583caa8581feb914,60db6c099c34abc715a1803e,,,,,,,,,,,,,,,,,,,,
9221,626708b806b19921fe99d4a1,Chrome,,main_task,1.0,2.0,chris,"4/25/2022, 2:46:49 PM",vqy1ync5e8534kcvchph,0.0-119.0-0.0,pilot_prolific_afc,39,,,,,,,1944.0,<p><img src='../stimuli/version1_gray_lm/id032_50R_U.png'></img><img src='../stimuli/version1_gray_lm/id149_25R_D.png'></img></p>,602363.0,,128.0,2.0,retrieval_practice,,,,,,,,,,,,,,,,,,,,,,,,,,,,,,,,,,,,,,,,,,,,,,,,,,,,,,,626705edcc1ef7741765872d,6266e20a583caa8581feb913,60242bdb4097360ad464addc,"{'muct_id': '43', 'lighting': 'q', 'race_guess': 'w', 'gender_guess': 'm', 'quality': '3', 'quality_eyes': '3', 'quality_mouth': '3', 'quality_ears': '3', 'quality_hair': '3', 'quality_neck': '3', 'facial_hair': '0.0', 'notes': None, 'race_common': 'white', 'gender_common': 'man'}","{'muct_id': '416', 'lighting': 'w', 'race_guess': 'w', 'gender_guess': 'm', 'quality': '3', 'quality_eyes': '3', 'quality_mouth': '3', 'quality_ears': '3', 'quality_hair': '3', 'quality_neck': '3', 'facial_hair': '2.0', 'notes': None, 'race_common': 'white', 'gender_common': 'man'}",man,032,0.0,white,50R,U,063,oddity,man,149,1.0,29.0,25R,D,white,25R,D,"['../stimuli/version1_gray_lm/id032_50R_U.png', '../stimuli/version1_gray_lm/id149_25R_D.png']"
9222,626708bc06b19921fe99d4a2,Chrome,,main_task,1.0,1.0,chris,"4/25/2022, 2:46:52 PM",vqy1ync5e8534kcvchph,0.0-120.0-0.0,pilot_prolific_afc,37,,,,,,,2134.60000000149,<p><img src='../stimuli/version1_gray_lm/id143_50R_D.png'></img><img src='../stimuli/version1_gray_lm/id076_25R_U.png'></img></p>,605513.0,,130.0,3.0,retrieval_practice,,,,,,,,,,,,,,,,,,,,,,,,,,,,,,,,,,,,,,,,,,,,,,,,,,,,,,,626705edcc1ef7741765872d,6266e20a583caa8581feb913,60242bdb4097360ad464addc,"{'muct_id': '233', 'lighting': 'u', 'race_guess': 'w', 'gender_guess': 'w', 'quality': '3', 'quality_eyes': '3', 'quality_mouth': '3', 'quality_ears': '3', 'quality_hair': '3', 'quality_neck': '3', 'facial_hair': '0.0', 'notes': 'earrings', 'race_common': 'white', 'gender_common': 'woman'}","{'muct_id': '90', 'lighting': 'q', 'race_guess': 'u', 'gender_guess': 'm', 'quality': '2', 'quality_eyes': '3', 'quality_mouth': '3', 'quality_ears': '2', 'quality_hair': '3', 'quality_neck': '3', 'facial_hair': '4.0', 'notes': 'beard', 'race_common': 'white', 'gender_common': 'man'}",woman,076,1.0,white,25R,U,061,oddity,man,143,0.0,21.0,50R,D,white,50R,D,"['../stimuli/version1_gray_lm/id143_50R_D.png', '../stimuli/version1_gray_lm/id076_25R_U.png']"
9223,626708c006b19921fe99d4a3,Chrome,1.0,main_task,0.0,3.0,chris,"4/25/2022, 4:46:56 PM",6edmwrn8v00wf2oo2ojd,0.0-20.0,pilot_prolific_afc,37,woman,109,2.0,white,00C,U,7731.0,"['../stimuli/version1_gray_lm/id013_50R_D.png', '../stimuli/version1_gray_lm/id013_25L_C.png', '../stimuli/version1_gray_lm/id109_00C_U.png']",158683.0,0.0,25.0,9.0,encoding,woman,013,"[0, 1]",white,"['50R', '25L']","['D', 'C']",,"{'muct_id': '401', 'lighting': 'w', 'race_guess': 'w', 'gender_guess': 'w', 'quality': '3', 'quality_eyes': '3', 'quality_mouth': '3', 'quality_ears': '3', 'quality_hair': '3', 'quality_neck': '3', 'facial_hair': '0.0', 'notes': 'mouth', 'race_common': 'white', 'gender_common': 'woman'}","{'muct_id': '14', 'lighting': 'q', 'race_guess': 'w', 'gender_guess': 'w', 'quality': '3', 'quality_eyes': '3', 'quality_mouth': '3', 'quality_ears': '3', 'quality_hair': '3', 'quality_neck': '3', 'facial_hair': '0.0', 'notes': None, 'race_common': 'white', 'gender_common': 'woman'}",,,,,,,,,,,,,,,,,,,,,,,,,,,,,,,,,,,,,,,,,,,,,,626707fbe807b577989c2c68,6266e20a583caa8581feb914,60db6c099c34abc715a1803e,,,,,,,,,,,,,,,,,,,,
9224,626708c606b19921fe99d4a4,Chrome,,main_task,0.0,1.0,chris,"4/25/2022, 2:47:02 PM",vqy1ync5e8534kcvchph,0.0-122.0,pilot_prolific_afc,39,,,,,,,2458.7999999970198,<p><img src='../stimuli/version1_gray_lm/id119_00C_D.png'></img><img src='../stimuli/version1_gray_lm/id137_25R_U.png'></img></p>,616017.0,,133.0,1.0,retrieval,,,,,,,,,,,,,,,,,,,,,,,,,,,,,,,,,,,,,,,,,,,,,,,,,,,,,,,626705edcc1ef7741765872d,6266e20a583caa8581feb913,60242bdb4097360ad464addc,"{'muct_id': '617', 'lighting': 'y', 'race_guess': 'b', 'gender_guess': 'w', 'quality': '3', 'quality_eyes': '3', 'quality_mouth': '3', 'quality_ears': '3', 'quality_hair': '3', 'quality_neck': '3', 'facial_hair': '0.0', 'notes': 'mouth', 'race_common': 'black', 'gender_common': 'man'}","{'muct_id': '420', 'lighting': 'w', 'race_guess': 'b', 'gender_guess': 'm', 'quality': '3', 'quality_eyes': '3', 'quality_mouth': '3', 'quality_ears': '3', 'quality_hair': '3', 'quality_neck': '3', 'facial_hair': '0.0', 'notes': None, 'race_common': 'black', 'gender_common': 'man'}",man,137,1.0,black,25R,U,097,oddity,man,119,0.0,14.0,00C,D,black,00C,D,"['../stimuli/version1_gray_lm/id119_00C_D.png', '../stimuli/version1_gray_lm/id137_25R_U.png']"
9225,626708c906b19921fe99d4a5,Chrome,3.0,main_task,1.0,3.0,chris,"4/25/2022, 4:47:05 PM",6edmwrn8v00wf2oo2ojd,0.0-22.0,pilot_prolific_afc,40,man,113,2.0,black,50R,D,7585.0,"['../stimuli/version1_gray_lm/id040_25L_U.png', '../stimuli/version1_gray_lm/id040_00C_C.png', '../stimuli/version1_gray_lm/id113_50R_D.png']",166932.0,0.0,27.0,10.0,encoding,man,040,"[0, 1]",black,"['25L', '00C']","['U', 'C']",,"{'muct_id': '407', 'lighting': 'x', 'race_guess': 'u', 'gender_guess': 'm', 'quality': '3', 'quality_eyes': '3', 'quality_mouth': '3', 'quality_ears': '3', 'quality_hair': '3', 'quality_neck': '3', 'facial_hair': '3.0', 'notes': 'beard', 'race_common': 'black', 'gender_common': 'man'}","{'muct_id': '55', 'lighting': 'r', 'race_guess': 'b', 'gender_guess': 'm', 'quality': '3', 'quality_eyes': '3', 'quality_mouth': '3', 'quality_ears': '3', 'quality_hair': '3', 'quality_neck': '3', 'facial_hair': '3.0', 'notes': 'beard', 'race_common': 'black', 'gender_common': 'man'}",,,,,,,,,,,,,,,,,,,,,,,,,,,,,,,,,,,,,,,,,,,,,,626707fbe807b577989c2c68,6266e20a583caa8581feb914,60db6c099c34abc715a1803e,,,,,,,,,,,,,,,,,,,,
9226,626708cb06b19921fe99d4a6,Chrome,,main_task,1.0,1.0,chris,"4/25/2022, 2:47:07 PM",vqy1ync5e8534kcvchph,0.0-124.0,pilot_prolific_afc,37,,,,,,,3596.5,<p><img src='../stimuli/version1_gray_lm/id113_50R_D.png'></img><img src='../stimuli/version1_gray_lm/id028_50L_U.png'></img></p>,620516.0,,135.0,2.0,retrieval,,,,,,,,,,,,,,,,,,,,,,,,,,,,,,,,,,,,,,,,,,,,,,,,,,,,,,,626705edcc1ef7741765872d,6266e20a583caa8581feb913,60242bdb4097360ad464addc,"{'muct_id': '38', 'lighting': 'q', 'race_guess': 'b', 'gender_guess': 'm', 'quality': '3', 'quality_eyes': '3', 'quality_mouth': '3', 'quality_ears': '3', 'quality_hair': '3', 'quality_neck': '3', 'facial_hair': '2.0', 'notes': None, 'race_common': 'black', 'gender_common': 'man'}","{'muct_id': '407', 'lighting': 'x', 'race_guess': 'u', 'gender_guess': 'm', 'quality': '3', 'quality_eyes': '3', 'quality_mouth': '3', 'quality_ears': '3', 'quality_hair': '3', 'quality_neck': '3', 'facial_hair': '3.0', 'notes': 'beard', 'race_common': 'black', 'gender_common': 'man'}",man,028,1.0,black,50L,U,091,oddity,man,113,0.0,11.0,00C,D,black,50R,D,"['../stimuli/version1_gray_lm/id113_50R_D.png', '../stimuli/version1_gray_lm/id028_50L_U.png']"
9227,626708ce06b19921fe99d4a7,Chrome,3.0,main_task,1.0,3.0,chris,"4/25/2022, 4:47:10 PM",6edmwrn8v00wf2oo2ojd,0.0-24.0,pilot_prolific_afc,40,woman,114,2.0,white,50R,U,4332.0,"['../stimuli/version1_gray_lm/id076_25L_D.png', '../stimuli/version1_gray_lm/id076_00C_C.png', '../stimuli/version1_gray_lm/id114_50R_U.png']",171913.0,0.0,29.0,11.0,encoding,woman,076,"[0, 1]",white,"['25L', '00C']","['D', 'C']",,"{'muct_id': '410', 'lighting': 'w', 'race_guess': 'w', 'gender_guess': 'w', 'quality': '3', 'quality_eyes': '3', 'quality_mouth': '3', 'quality_ears': '3', 'quality_hair': '3', 'quality_neck': '3', 'facial_hair': '0.0', 'notes': 'makeup mouth', 'race_common': 'white', 'gender_common': 'woman'}","{'muct_id': '233', 'lighting': 'u', 'race_guess': 'w', 'gender_guess': 'w', 'quality': '3', 'quality_eyes': '3', 'quality_mouth': '3', 'quality_ears': '3', 'quality_hair': '3', 'quality_neck': '3', 'facial_hair': '0.0', 'notes': 'earrings', 'race_common': 'white', 'gender_common': 'woman'}",,,,,,,,,,,,,,,,,,,,,,,,,,,,,,,,,,,,,,,,,,,,,,626707fbe807b577989c2c68,6266e20a583caa8581feb914,60db6c099c34abc715a1803e,,,,,,,,,,,,,,,,,,,,
9228,626708cf06b19921fe99d4a8,Chrome,,main_task,1.0,1.0,chris,"4/25/2022, 2:47:11 PM",vqy1ync5e8534kcvchph,0.0-126.0,pilot_prolific_afc,37,,,,,,,3220.8000000044703,<p><img src='../stimuli/version1_gray_lm/id115_00C_D.png'></img><img src='../stimuli/version1_gray_lm/id034_25R_C.png'></img></p>,624798.0,,137.0,3.0,retrieval,,,,,,,,,,,,,,,,,,,,,,,,,,,,,,,,,,,,,,,,,,,,,,,,,,,,,,,626705edcc1ef7741765872d,6266e20a583caa8581feb913,60242bdb4097360ad464addc,"{'muct_id': '45', 'lighting': 'q', 'race_guess': 'w', 'gender_guess': 'm', 'quality': '3', 'quality_eyes': '3', 'quality_mouth': '3', 'quality_ears': '3', 'quality_hair': '3', 'quality_neck': '3', 'facial_hair': '0.0', 'notes': None, 'race_common': 'white', 'gender_common': 'man'}","{'muct_id': '412', 'lighting': 'x', 'race_guess': 'w', 'gender_guess': 'm', 'quality': '3', 'quality_eyes': '3', 'quality_mouth': '3', 'quality_ears': '3', 'quality_hair': '3', 'quality_neck': '3', 'facial_hair': '0.0', 'notes': None, 'race_common': 'white', 'gender_common': 'man'}",man,034,1.0,white,25R,C,094,oddity,man,115,0.0,12.0,00C,D,white,00C,D,"['../stimuli/version1_gray_lm/id115_00C_D.png', '../stimuli/version1_gray_lm/id034_25R_C.png']"
9229,626708d106b19921fe99d4a9,Chrome,,main_task,1.0,2.0,chris,"4/25/2022, 2:47:13 PM",vqy1ync5e8534kcvchph,0.0-128.0,pilot_prolific_afc,39,,,,,,,1901.7999999970198,<p><img src='../stimuli/version1_gray_lm/id088_50L_C.png'></img><img src='../stimuli/version1_gray_lm/id100_00C_C.png'></img></p>,627226.0,,139.0,4.0,retrieval,,,,,,,,,,,,,,,,,,,,,,,,,,,,,,,,,,,,,,,,,,,,,,,,,,,,,,,626705edcc1ef7741765872d,6266e20a583caa8581feb913,60242bdb4097360ad464addc,"{'muct_id': '252', 'lighting': 't', 'race_guess': 'w', 'gender_guess': 'w', 'quality': '3', 'quality_eyes': '3', 'quality_mouth': '3', 'quality_ears': '3', 'quality_hair': '3', 'quality_neck': '3', 'facial_hair': '0.0', 'notes': 'hair', 'race_common': 'white', 'gender_common': 'woman'}","{'muct_id': '280', 'lighting': 'u', 'race_guess': 'w', 'gender_guess': 'm', 'quality': '3', 'quality_eyes': '3', 'quality_mouth': '3', 'quality_ears': '3', 'quality_hair': '3', 'quality_neck': '3', 'facial_hair': '0.0', 'notes': None, 'race_common': 'white', 'gender_common': 'man'}",woman,088,0.0,white,50L,C,092,oddity,man,100,1.0,3.0,50R,C,white,00C,C,"['../stimuli/version1_gray_lm/id088_50L_C.png', '../stimuli/version1_gray_lm/id100_00C_C.png']"
9230,626708d506b19921fe99d4aa,Chrome,,main_task,0.0,1.0,chris,"4/25/2022, 2:47:17 PM",vqy1ync5e8534kcvchph,0.0-130.0,pilot_prolific_afc,39,,,,,,,3277.5,<p><img src='../stimuli/version1_gray_lm/id121_50R_D.png'></img><img src='../stimuli/version1_gray_lm/id019_50L_U.png'></img></p>,631087.0,,141.0,5.0,retrieval,,,,,,,,,,,,,,,,,,,,,,,,,,,,,,,,,,,,,,,,,,,,,,,,,,,,,,,626705edcc1ef7741765872d,6266e20a583caa8581feb913,60242bdb4097360ad464addc,"{'muct_id': '23', 'lighting': 'q', 'race_guess': 'b', 'gender_guess': 'u', 'quality': '3', 'quality_eyes': '3', 'quality_mouth': '3', 'quality_ears': '3', 'quality_hair': '3', 'quality_neck': '3', 'facial_hair': '0.0', 'notes': None, 'race_common': 'black', 'gender_common': 'woman'}","{'muct_id': '423', 'lighting': 'w', 'race_guess': 'b', 'gender_guess': 'm', 'quality': '3', 'quality_eyes': '3', 'quality_mouth': '3', 'quality_ears': '3', 'quality_hair': '3', 'quality_neck': '3', 'facial_hair': '1.0', 'notes': None, 'race_common': 'black', 'gender_common': 'man'}",woman,019,1.0,black,50L,U,058,oddity,man,121,0.0,19.0,00C,D,black,50R,D,"['../stimuli/version1_gray_lm/id121_50R_D.png', '../stimuli/version1_gray_lm/id019_50L_U.png']"
9231,626708d606b19921fe99d4ab,Chrome,2.0,main_task,1.0,2.0,chris,"4/25/2022, 4:47:18 PM",6edmwrn8v00wf2oo2ojd,0.0-26.0,pilot_prolific_afc,39,man,117,1.0,black,00C,D,6727.0,"['../stimuli/version1_gray_lm/id081_50L_U.png', '../stimuli/version1_gray_lm/id117_00C_D.png', '../stimuli/version1_gray_lm/id081_50R_C.png']",179913.0,0.0,31.0,12.0,encoding,man,081,"[0, 2]",black,"['50L', '50R']","['U', 'C']",,"{'muct_id': '417', 'lighting': 'w', 'race_guess': 'b', 'gender_guess': 'm', 'quality': '3', 'quality_eyes': '3', 'quality_mouth': '3', 'quality_ears': '3', 'quality_hair': '3', 'quality_neck': '3', 'facial_hair': '1.0', 'notes': 'mouth', 'race_common': 'black', 'gender_common': 'man'}","{'muct_id': '241', 'lighting': 't', 'race_guess': 'u', 'gender_guess': 'm', 'quality': '3', 'quality_eyes': '3', 'quality_mouth': '3', 'quality_ears': '3', 'quality_hair': '3', 'quality_neck': '3', 'facial_hair': '1.0', 'notes': 'mouth', 'race_common': 'black', 'gender_common': 'man'}",,,,,,,,,,,,,,,,,,,,,,,,,,,,,,,,,,,,,,,,,,,,,,626707fbe807b577989c2c68,6266e20a583caa8581feb914,60db6c099c34abc715a1803e,,,,,,,,,,,,,,,,,,,,
9232,626708d706b19921fe99d4ac,Chrome,,main_task,1.0,2.0,chris,"4/25/2022, 2:47:19 PM",vqy1ync5e8534kcvchph,0.0-132.0,pilot_prolific_afc,39,,,,,,,1558.2999999970198,<p><img src='../stimuli/version1_gray_lm/id086_25L_D.png'></img><img src='../stimuli/version1_gray_lm/id111_25L_D.png'></img></p>,633115.0,,143.0,6.0,retrieval,,,,,,,,,,,,,,,,,,,,,,,,,,,,,,,,,,,,,,,,,,,,,,,,,,,,,,,626705edcc1ef7741765872d,6266e20a583caa8581feb913,60242bdb4097360ad464addc,"{'muct_id': '250', 'lighting': 't', 'race_guess': 'b', 'gender_guess': 'm', 'quality': '3', 'quality_eyes': '3', 'quality_mouth': '3', 'quality_ears': '3', 'quality_hair': '3', 'quality_neck': '3', 'facial_hair': '1.0', 'notes': None, 'race_common': 'black', 'gender_common': 'man'}","{'muct_id': '405', 'lighting': 'w', 'race_guess': 'b', 'gender_guess': 'w', 'quality': '3', 'quality_eyes': '3', 'quality_mouth': '3', 'quality_ears': '3', 'quality_hair': '3', 'quality_neck': '3', 'facial_hair': '0.0', 'notes': 'hair earrings', 'race_common': 'black', 'gender_common': 'woman'}",man,086,0.0,black,25L,D,027,oddity,woman,111,1.0,7.0,25L,D,black,25L,D,"['../stimuli/version1_gray_lm/id086_25L_D.png', '../stimuli/version1_gray_lm/id111_25L_D.png']"
9233,626708db06b19921fe99d4ad,Chrome,,main_task,0.0,2.0,chris,"4/25/2022, 2:47:24 PM",vqy1ync5e8534kcvchph,0.0-134.0,pilot_prolific_afc,37,,,,,,,3767.1999999955297,<p><img src='../stimuli/version1_gray_lm/id153_00C_D.png'></img><img src='../stimuli/version1_gray_lm/id152_00C_D.png'></img></p>,637415.0,,145.0,7.0,retrieval,,,,,,,,,,,,,,,,,,,,,,,,,,,,,,,,,,,,,,,,,,,,,,,,,,,,,,,626705edcc1ef7741765872d,6266e20a583caa8581feb913,60242bdb4097360ad464addc,"{'muct_id': '437', 'lighting': 'x', 'race_guess': 'w', 'gender_guess': 'w', 'quality': '3', 'quality_eyes': '3', 'quality_mouth': '3', 'quality_ears': '3', 'quality_hair': '3', 'quality_neck': '3', 'facial_hair': '0.0', 'notes': 'hair', 'race_common': 'white', 'gender_common': 'woman'}","{'muct_id': '446', 'lighting': 'w', 'race_guess': 'w', 'gender_guess': 'w', 'quality': '3', 'quality_eyes': '3', 'quality_mouth': '3', 'quality_ears': '3', 'quality_hair': '3', 'quality_neck': '3', 'facial_hair': '0.0', 'notes': None, 'race_common': 'white', 'gender_common': 'woman'}",woman,153,0.0,white,00C,D,003,oddity,woman,152,1.0,35.0,00C,D,white,00C,D,"['../stimuli/version1_gray_lm/id153_00C_D.png', '../stimuli/version1_gray_lm/id152_00C_D.png']"
9234,626708dd06b19921fe99d4ae,Chrome,1.0,main_task,1.0,1.0,chris,"4/25/2022, 4:47:25 PM",6edmwrn8v00wf2oo2ojd,0.0-28.0,pilot_prolific_afc,37,man,118,0.0,black,50R,C,6414.0,"['../stimuli/version1_gray_lm/id118_50R_C.png', '../stimuli/version1_gray_lm/id056_25L_U.png', '../stimuli/version1_gray_lm/id056_00C_D.png']",187040.0,0.0,33.0,13.0,encoding,man,056,"[1, 2]",black,"['25L', '00C']","['U', 'D']",,"{'muct_id': '419', 'lighting': 'x', 'race_guess': 'b', 'gender_guess': 'm', 'quality': '3', 'quality_eyes': '3', 'quality_mouth': '3', 'quality_ears': '3', 'quality_hair': '3', 'quality_neck': '3', 'facial_hair': '1.0', 'notes': None, 'race_common': 'black', 'gender_common': 'man'}","{'muct_id': '82', 'lighting': 'q', 'race_guess': 'b', 'gender_guess': 'm', 'quality': '3', 'quality_eyes': '3', 'quality_mouth': '3', 'quality_ears': '3', 'quality_hair': '3', 'quality_neck': '3', 'facial_hair': '1.0', 'notes': None, 'race_common': 'black', 'gender_common': 'man'}",,,,,,,,,,,,,,,,,,,,,,,,,,,,,,,,,,,,,,,,,,,,,,626707fbe807b577989c2c68,6266e20a583caa8581feb914,60db6c099c34abc715a1803e,,,,,,,,,,,,,,,,,,,,
9235,626708e006b19921fe99d4af,Chrome,,main_task,1.0,1.0,chris,"4/25/2022, 2:47:28 PM",vqy1ync5e8534kcvchph,0.0-136.0,pilot_prolific_afc,37,,,,,,,3861.2000000029802,<p><img src='../stimuli/version1_gray_lm/id148_25L_C.png'></img><img src='../stimuli/version1_gray_lm/id041_25L_U.png'></img></p>,641710.0,,147.0,8.0,retrieval,,,,,,,,,,,,,,,,,,,,,,,,,,,,,,,,,,,,,,,,,,,,,,,,,,,,,,,626705edcc1ef7741765872d,6266e20a583caa8581feb913,60242bdb4097360ad464addc,"{'muct_id': '56', 'lighting': 'q', 'race_guess': 'w', 'gender_guess': 'm', 'quality': '3', 'quality_eyes': '3', 'quality_mouth': '3', 'quality_ears': '3', 'quality_hair': '3', 'quality_neck': '3', 'facial_hair': '0.0', 'notes': None, 'race_common': 'white', 'gender_common': 'man'}","{'muct_id': '415', 'lighting': 'w', 'race_guess': 'w', 'gender_guess': 'w', 'quality': '3', 'quality_eyes': '3', 'quality_mouth': '3', 'quality_ears': '3', 'quality_hair': '3', 'quality_neck': '3', 'facial_hair': '0.0', 'notes': None, 'race_common': 'white', 'gender_common': 'woman'}",man,041,1.0,white,25L,U,054,oddity,woman,148,0.0,30.0,25R,C,white,25L,C,"['../stimuli/version1_gray_lm/id148_25L_C.png', '../stimuli/version1_gray_lm/id041_25L_U.png']"
9236,626708e206b19921fe99d4b0,Chrome,3.0,main_task,1.0,3.0,chris,"4/25/2022, 4:47:29 PM",6edmwrn8v00wf2oo2ojd,0.0-30.0,pilot_prolific_afc,40,man,116,2.0,white,50R,C,4204.0,"['../stimuli/version1_gray_lm/id092_00C_U.png', '../stimuli/version1_gray_lm/id092_50L_D.png', '../stimuli/version1_gray_lm/id116_50R_C.png']",191868.0,0.0,35.0,14.0,encoding,man,092,"[0, 1]",white,"['00C', '50L']","['U', 'D']",,"{'muct_id': '414', 'lighting': 'w', 'race_guess': 'w', 'gender_guess': 'm', 'quality': '3', 'quality_eyes': '3', 'quality_mouth': '3', 'quality_ears': '3', 'quality_hair': '3', 'quality_neck': '3', 'facial_hair': '0.0', 'notes': None, 'race_common': 'white', 'gender_common': 'man'}","{'muct_id': '261', 'lighting': 'v', 'race_guess': 'w', 'gender_guess': 'm', 'quality': '2', 'quality_eyes': '2', 'quality_mouth': '3', 'quality_ears': '3', 'quality_hair': '3', 'quality_neck': '3', 'facial_hair': '0.0', 'notes': None, 'race_common': 'white', 'gender_common': 'man'}",,,,,,,,,,,,,,,,,,,,,,,,,,,,,,,,,,,,,,,,,,,,,,626707fbe807b577989c2c68,6266e20a583caa8581feb914,60db6c099c34abc715a1803e,,,,,,,,,,,,,,,,,,,,
9237,626708e306b19921fe99d4b1,Chrome,,main_task,0.0,2.0,chris,"4/25/2022, 2:47:31 PM",vqy1ync5e8534kcvchph,0.0-138.0,pilot_prolific_afc,37,,,,,,,2958.0,<p><img src='../stimuli/version1_gray_lm/id020_50L_D.png'></img><img src='../stimuli/version1_gray_lm/id124_00C_U.png'></img></p>,645019.0,,149.0,9.0,retrieval,,,,,,,,,,,,,,,,,,,,,,,,,,,,,,,,,,,,,,,,,,,,,,,,,,,,,,,626705edcc1ef7741765872d,6266e20a583caa8581feb913,60242bdb4097360ad464addc,"{'muct_id': '24', 'lighting': 'q', 'race_guess': 'b', 'gender_guess': 'w', 'quality': '3', 'quality_eyes': '3', 'quality_mouth': '3', 'quality_ears': '3', 'quality_hair': '3', 'quality_neck': '3', 'facial_hair': '0.0', 'notes': None, 'race_common': 'black', 'gender_common': 'woman'}","{'muct_id': '431', 'lighting': 'x', 'race_guess': 'b', 'gender_guess': 'u', 'quality': '3', 'quality_eyes': '3', 'quality_mouth': '3', 'quality_ears': '3', 'quality_hair': '3', 'quality_neck': '3', 'facial_hair': '0.0', 'notes': 'mouth', 'race_common': 'black', 'gender_common': 'man'}",woman,020,0.0,black,50L,D,030,oddity,man,124,1.0,22.0,00C,U,black,00C,U,"['../stimuli/version1_gray_lm/id020_50L_D.png', '../stimuli/version1_gray_lm/id124_00C_U.png']"
9238,626708e506b19921fe99d4b2,Chrome,2.0,main_task,1.0,2.0,chris,"4/25/2022, 4:47:33 PM",6edmwrn8v00wf2oo2ojd,0.0-32.0,pilot_prolific_afc,39,man,119,1.0,black,50R,C,2983.0,"['../stimuli/version1_gray_lm/id097_25L_D.png', '../stimuli/version1_gray_lm/id119_50R_C.png', '../stimuli/version1_gray_lm/id097_00C_U.png']",195804.0,0.0,37.0,15.0,encoding,man,097,"[0, 2]",black,"['25L', '00C']","['D', 'U']",,"{'muct_id': '420', 'lighting': 'w', 'race_guess': 'b', 'gender_guess': 'm', 'quality': '3', 'quality_eyes': '3', 'quality_mouth': '3', 'quality_ears': '3', 'quality_hair': '3', 'quality_neck': '3', 'facial_hair': '0.0', 'notes': None, 'race_common': 'black', 'gender_common': 'man'}","{'muct_id': '269', 'lighting': 'u', 'race_guess': 'b', 'gender_guess': 'm', 'quality': '3', 'quality_eyes': '3', 'quality_mouth': '3', 'quality_ears': '3', 'quality_hair': '3', 'quality_neck': '3', 'facial_hair': '0.0', 'notes': None, 'race_common': 'black', 'gender_common': 'man'}",,,,,,,,,,,,,,,,,,,,,,,,,,,,,,,,,,,,,,,,,,,,,,626707fbe807b577989c2c68,6266e20a583caa8581feb914,60db6c099c34abc715a1803e,,,,,,,,,,,,,,,,,,,,
9239,626708e706b19921fe99d4b3,Chrome,,main_task,1.0,1.0,chris,"4/25/2022, 2:47:35 PM",vqy1ync5e8534kcvchph,0.0-140.0,pilot_prolific_afc,37,,,,,,,2561.39999999851,<p><img src='../stimuli/version1_gray_lm/id105_00C_D.png'></img><img src='../stimuli/version1_gray_lm/id081_00C_U.png'></img></p>,648484.0,,151.0,10.0,retrieval,,,,,,,,,,,,,,,,,,,,,,,,,,,,,,,,,,,,,,,,,,,,,,,,,,,,,,,626705edcc1ef7741765872d,6266e20a583caa8581feb913,60242bdb4097360ad464addc,"{'muct_id': '241', 'lighting': 't', 'race_guess': 'u', 'gender_guess': 'm', 'quality': '3', 'quality_eyes': '3', 'quality_mouth': '3', 'quality_ears': '3', 'quality_hair': '3', 'quality_neck': '3', 'facial_hair': '1.0', 'notes': 'mouth', 'race_common': 'black', 'gender_common': 'man'}","{'muct_id': '290', 'lighting': 't', 'race_guess': 'b', 'gender_guess': 'm', 'quality': '3', 'quality_eyes': '3', 'quality_mouth': '3', 'quality_ears': '3', 'quality_hair': '3', 'quality_neck': '3', 'facial_hair': '2.0', 'notes': None, 'race_common': 'black', 'gender_common': 'man'}",man,081,1.0,black,00C,U,090,oddity,man,105,0.0,2.0,00C,D,black,00C,D,"['../stimuli/version1_gray_lm/id105_00C_D.png', '../stimuli/version1_gray_lm/id081_00C_U.png']"
9240,626708eb06b19921fe99d4b4,Chrome,,main_task,0.0,2.0,chris,"4/25/2022, 2:47:39 PM",vqy1ync5e8534kcvchph,0.0-142.0,pilot_prolific_afc,37,,,,,,,3761.5,<p><img src='../stimuli/version1_gray_lm/id077_00C_U.png'></img><img src='../stimuli/version1_gray_lm/id132_00C_C.png'></img></p>,652829.0,,153.0,11.0,retrieval,,,,,,,,,,,,,,,,,,,,,,,,,,,,,,,,,,,,,,,,,,,,,,,,,,,,,,,626705edcc1ef7741765872d,6266e20a583caa8581feb913,60242bdb4097360ad464addc,"{'muct_id': '235', 'lighting': 'u', 'race_guess': 'b', 'gender_guess': 'w', 'quality': '3', 'quality_eyes': '3', 'quality_mouth': '3', 'quality_ears': '3', 'quality_hair': '3', 'quality_neck': '3', 'facial_hair': '0.0', 'notes': 'earrings', 'race_common': 'black', 'gender_common': 'woman'}","{'muct_id': '450', 'lighting': 'w', 'race_guess': 'b', 'gender_guess': 'm', 'quality': '3', 'quality_eyes': '3', 'quality_mouth': '3', 'quality_ears': '3', 'quality_hair': '3', 'quality_neck': '3', 'facial_hair': '4.0', 'notes': 'mouth', 'race_common': 'black', 'gender_common': 'man'}",woman,077,0.0,black,00C,U,064,oddity,man,132,1.0,31.0,50R,C,black,00C,C,"['../stimuli/version1_gray_lm/id077_00C_U.png', '../stimuli/version1_gray_lm/id132_00C_C.png']"
9241,626708eb06b19921fe99d4b5,Chrome,1.0,main_task,1.0,1.0,chris,"4/25/2022, 4:47:39 PM",6edmwrn8v00wf2oo2ojd,0.0-34.0,pilot_prolific_afc,37,man,115,0.0,white,00C,D,4599.0,"['../stimuli/version1_gray_lm/id115_00C_D.png', '../stimuli/version1_gray_lm/id094_50L_C.png', '../stimuli/version1_gray_lm/id094_25R_U.png']",201372.0,0.0,39.0,16.0,encoding,man,094,"[1, 2]",white,"['50L', '25R']","['C', 'U']",,"{'muct_id': '412', 'lighting': 'x', 'race_guess': 'w', 'gender_guess': 'm', 'quality': '3', 'quality_eyes': '3', 'quality_mouth': '3', 'quality_ears': '3', 'quality_hair': '3', 'quality_neck': '3', 'facial_hair': '0.0', 'notes': None, 'race_common': 'white', 'gender_common': 'man'}","{'muct_id': '264', 'lighting': 't', 'race_guess': 'w', 'gender_guess': 'm', 'quality': '3', 'quality_eyes': '3', 'quality_mouth': '3', 'quality_ears': '3', 'quality_hair': '3', 'quality_neck': '3', 'facial_hair': '0.0', 'notes': None, 'race_common': 'white', 'gender_common': 'man'}",,,,,,,,,,,,,,,,,,,,,,,,,,,,,,,,,,,,,,,,,,,,,,626707fbe807b577989c2c68,6266e20a583caa8581feb914,60db6c099c34abc715a1803e,,,,,,,,,,,,,,,,,,,,
9242,626708ed06b19921fe99d4b6,Chrome,,main_task,1.0,1.0,chris,"4/25/2022, 2:47:41 PM",vqy1ync5e8534kcvchph,0.0-144.0,pilot_prolific_afc,37,,,,,,,1930.0,<p><img src='../stimuli/version1_gray_lm/id133_25R_D.png'></img><img src='../stimuli/version1_gray_lm/id016_25R_C.png'></img></p>,655200.0,,155.0,12.0,retrieval,,,,,,,,,,,,,,,,,,,,,,,,,,,,,,,,,,,,,,,,,,,,,,,,,,,,,,,626705edcc1ef7741765872d,6266e20a583caa8581feb913,60242bdb4097360ad464addc,"{'muct_id': '18', 'lighting': 'q', 'race_guess': 'b', 'gender_guess': 'w', 'quality': '3', 'quality_eyes': '3', 'quality_mouth': '3', 'quality_ears': '3', 'quality_hair': '3', 'quality_neck': '3', 'facial_hair': '0.0', 'notes': 'earrings', 'race_common': 'black', 'gender_common': 'woman'}","{'muct_id': '601', 'lighting': 'y', 'race_guess': 'b', 'gender_guess': 'w', 'quality': '3', 'quality_eyes': '3', 'quality_mouth': '3', 'quality_ears': '3', 'quality_hair': '3', 'quality_neck': '3', 'facial_hair': '0.0', 'notes': 'mouth', 'race_common': 'black', 'gender_common': 'woman'}",woman,016,1.0,black,25R,C,005,oddity,woman,133,0.0,34.0,25L,D,black,25R,D,"['../stimuli/version1_gray_lm/id133_25R_D.png', '../stimuli/version1_gray_lm/id016_25R_C.png']"
9243,626708f006b19921fe99d4b7,Chrome,,main_task,1.0,1.0,chris,"4/25/2022, 2:47:44 PM",vqy1ync5e8534kcvchph,0.0-146.0,pilot_prolific_afc,37,,,,,,,1876.7999999970198,<p><img src='../stimuli/version1_gray_lm/id103_25R_D.png'></img><img src='../stimuli/version1_gray_lm/id021_25L_C.png'></img></p>,657693.0,,157.0,13.0,retrieval,,,,,,,,,,,,,,,,,,,,,,,,,,,,,,,,,,,,,,,,,,,,,,,,,,,,,,,626705edcc1ef7741765872d,6266e20a583caa8581feb913,60242bdb4097360ad464addc,"{'muct_id': '25', 'lighting': 'r', 'race_guess': 'b', 'gender_guess': 'm', 'quality': '3', 'quality_eyes': '3', 'quality_mouth': '3', 'quality_ears': '3', 'quality_hair': '3', 'quality_neck': '3', 'facial_hair': '2.0', 'notes': None, 'race_common': 'black', 'gender_common': 'man'}","{'muct_id': '285', 'lighting': 'v', 'race_guess': 'b', 'gender_guess': 'w', 'quality': '3', 'quality_eyes': '3', 'quality_mouth': '3', 'quality_ears': '3', 'quality_hair': '3', 'quality_neck': '3', 'facial_hair': '0.0', 'notes': 'earrings', 'race_common': 'black', 'gender_common': 'woman'}",man,021,1.0,black,25L,C,142,oddity,woman,103,0.0,1.0,25R,D,black,25R,D,"['../stimuli/version1_gray_lm/id103_25R_D.png', '../stimuli/version1_gray_lm/id021_25L_C.png']"
9244,626708f106b19921fe99d4b8,Chrome,1.0,main_task,1.0,1.0,chris,"4/25/2022, 4:47:45 PM",6edmwrn8v00wf2oo2ojd,0.0-36.0,pilot_prolific_afc,37,woman,125,0.0,white,00C,U,5532.0,"['../stimuli/version1_gray_lm/id125_00C_U.png', '../stimuli/version1_gray_lm/id153_50L_C.png', '../stimuli/version1_gray_lm/id153_25R_D.png']",207697.0,0.0,41.0,17.0,encoding,woman,153,"[1, 2]",white,"['50L', '25R']","['C', 'D']",,"{'muct_id': '433', 'lighting': 'x', 'race_guess': 'w', 'gender_guess': 'w', 'quality': '3', 'quality_eyes': '3', 'quality_mouth': '3', 'quality_ears': '3', 'quality_hair': '3', 'quality_neck': '3', 'facial_hair': '0.0', 'notes': None, 'race_common': 'white', 'gender_common': 'woman'}","{'muct_id': '437', 'lighting': 'x', 'race_guess': 'w', 'gender_guess': 'w', 'quality': '3', 'quality_eyes': '3', 'quality_mouth': '3', 'quality_ears': '3', 'quality_hair': '3', 'quality_neck': '3', 'facial_hair': '0.0', 'notes': 'hair', 'race_common': 'white', 'gender_common': 'woman'}",,,,,,,,,,,,,,,,,,,,,,,,,,,,,,,,,,,,,,,,,,,,,,626707fbe807b577989c2c68,6266e20a583caa8581feb914,60db6c099c34abc715a1803e,,,,,,,,,,,,,,,,,,,,
9245,626708f206b19921fe99d4b9,Chrome,,main_task,1.0,2.0,chris,"4/25/2022, 2:47:46 PM",vqy1ync5e8534kcvchph,0.0-148.0,pilot_prolific_afc,39,,,,,,,1612.2999999970198,<p><img src='../stimuli/version1_gray_lm/id007_50R_U.png'></img><img src='../stimuli/version1_gray_lm/id116_00C_C.png'></img></p>,659894.0,,159.0,14.0,retrieval,,,,,,,,,,,,,,,,,,,,,,,,,,,,,,,,,,,,,,,,,,,,,,,,,,,,,,,626705edcc1ef7741765872d,6266e20a583caa8581feb913,60242bdb4097360ad464addc,"{'muct_id': '7', 'lighting': 's', 'race_guess': 'u', 'gender_guess': 'w', 'quality': '3', 'quality_eyes': '3', 'quality_mouth': '3', 'quality_ears': '3', 'quality_hair': '3', 'quality_neck': '3', 'facial_hair': '0.0', 'notes': None, 'race_common': 'white', 'gender_common': 'woman'}","{'muct_id': '414', 'lighting': 'w', 'race_guess': 'w', 'gender_guess': 'm', 'quality': '3', 'quality_eyes': '3', 'quality_mouth': '3', 'quality_ears': '3', 'quality_hair': '3', 'quality_neck': '3', 'facial_hair': '0.0', 'notes': None, 'race_common': 'white', 'gender_common': 'man'}",woman,007,0.0,white,50R,U,156,oddity,man,116,1.0,15.0,00C,C,white,00C,C,"['../stimuli/version1_gray_lm/id007_50R_U.png', '../stimuli/version1_gray_lm/id116_00C_C.png']"
9246,626708f606b19921fe99d4ba,Chrome,,main_task,1.0,1.0,chris,"4/25/2022, 2:47:51 PM",vqy1ync5e8534kcvchph,0.0-150.0,pilot_prolific_afc,37,,,,,,,3504.10000000149,<p><img src='../stimuli/version1_gray_lm/id102_00C_U.png'></img><img src='../stimuli/version1_gray_lm/id049_50R_C.png'></img></p>,664349.0,,161.0,15.0,retrieval,,,,,,,,,,,,,,,,,,,,,,,,,,,,,,,,,,,,,,,,,,,,,,,,,,,,,,,626705edcc1ef7741765872d,6266e20a583caa8581feb913,60242bdb4097360ad464addc,"{'muct_id': '66', 'lighting': 'r', 'race_guess': 'w', 'gender_guess': 'm', 'quality': '3', 'quality_eyes': '3', 'quality_mouth': '3', 'quality_ears': '3', 'quality_hair': '3', 'quality_neck': '3', 'facial_hair': '0.0', 'notes': None, 'race_common': 'white', 'gender_common': 'man'}","{'muct_id': '283', 'lighting': 't', 'race_guess': 'i', 'gender_guess': 'w', 'quality': '3', 'quality_eyes': '3', 'quality_mouth': '3', 'quality_ears': '3', 'quality_hair': '3', 'quality_neck': '3', 'facial_hair': '0.0', 'notes': 'pottu', 'race_common': 'white', 'gender_common': 'woman'}",man,049,1.0,white,50R,C,155,oddity,woman,102,0.0,6.0,00C,U,white,00C,U,"['../stimuli/version1_gray_lm/id102_00C_U.png', '../stimuli/version1_gray_lm/id049_50R_C.png']"
9247,626708f706b19921fe99d4bb,Chrome,2.0,main_task,1.0,2.0,chris,"4/25/2022, 4:47:51 PM",6edmwrn8v00wf2oo2ojd,0.0-38.0,pilot_prolific_afc,39,man,121,1.0,black,00C,U,4609.0,"['../stimuli/version1_gray_lm/id058_50L_D.png', '../stimuli/version1_gray_lm/id121_00C_U.png', '../stimuli/version1_gray_lm/id058_25R_C.png']",213019.0,0.0,43.0,18.0,encoding,man,058,"[0, 2]",black,"['50L', '25R']","['D', 'C']",,"{'muct_id': '423', 'lighting': 'w', 'race_guess': 'b', 'gender_guess': 'm', 'quality': '3', 'quality_eyes': '3', 'quality_mouth': '3', 'quality_ears': '3', 'quality_hair': '3', 'quality_neck': '3', 'facial_hair': '1.0', 'notes': None, 'race_common': 'black', 'gender_common': 'man'}","{'muct_id': '84', 'lighting': 'q', 'race_guess': 'b', 'gender_guess': 'm', 'quality': '2', 'quality_eyes': '2', 'quality_mouth': '3', 'quality_ears': '3', 'quality_hair': '3', 'quality_neck': '3', 'facial_hair': '3.0', 'notes': 'beard', 'race_common': 'black', 'gender_common': 'man'}",,,,,,,,,,,,,,,,,,,,,,,,,,,,,,,,,,,,,,,,,,,,,,626707fbe807b577989c2c68,6266e20a583caa8581feb914,60db6c099c34abc715a1803e,,,,,,,,,,,,,,,,,,,,
9248,626708f906b19921fe99d4bc,Chrome,,main_task,1.0,1.0,chris,"4/25/2022, 2:47:53 PM",vqy1ync5e8534kcvchph,0.0-152.0,pilot_prolific_afc,37,,,,,,,1965.8999999985099,<p><img src='../stimuli/version1_gray_lm/id146_25R_U.png'></img><img src='../stimuli/version1_gray_lm/id074_00C_D.png'></img></p>,666620.0,,163.0,16.0,retrieval,,,,,,,,,,,,,,,,,,,,,,,,,,,,,,,,,,,,,,,,,,,,,,,,,,,,,,,626705edcc1ef7741765872d,6266e20a583caa8581feb913,60242bdb4097360ad464addc,"{'muct_id': '229', 'lighting': 't', 'race_guess': 'w', 'gender_guess': 'm', 'quality': '3', 'quality_eyes': '3', 'quality_mouth': '3', 'quality_ears': '3', 'quality_hair': '3', 'quality_neck': '3', 'facial_hair': '2.0', 'notes': 'mouth', 'race_common': 'white', 'gender_common': 'man'}","{'muct_id': '254', 'lighting': 'v', 'race_guess': 'w', 'gender_guess': 'm', 'quality': '2', 'quality_eyes': '2', 'quality_mouth': '3', 'quality_ears': '3', 'quality_hair': '2', 'quality_neck': '3', 'facial_hair': '0.0', 'notes': 'hair', 'race_common': 'white', 'gender_common': 'man'}",man,074,1.0,white,00C,D,080,oddity,man,146,0.0,25.0,25L,U,white,25R,U,"['../stimuli/version1_gray_lm/id146_25R_U.png', '../stimuli/version1_gray_lm/id074_00C_D.png']"
