,_id,rt,timed_out,stimulus,key_press,correct_response,oddity_index,oddity_identity,oddity_tiltLR,oddity_tiltUD,oddity_race,oddity_gender,typicals_indices,typicals_identity,typicals_tiltsLR,typicals_tiltsUD,typicals_race,typicals_gender,oddity_mb,typicals_mb,trial_type,trial_index,time_elapsed,internal_node_id,subject_id,study_id,session_id,choice,correct,trial_number,experiment_id,datetime,browser,collection,database,iteration,practice_threshold_met,oddity_meta,typicals_meta,button_pressed,last_trial_type,prediction,choice_category,choice_object,oddity_category,oddity_name,oddity_type,stimulus_response_map,typical_category,typical_indices,typical_name,variation_level,meta_new,meta_old,new_gender,new_identity,new_index,new_mb,new_race,new_tiltLR,new_tiltUD,old_encoding_pair,old_encoding_type,old_gender,old_identity,old_index,old_mb,old_original_index,old_original_tiltLR,old_original_tiltUD,old_race,old_tiltLR,old_tiltUD,response,slider_start,stimuli,tilt_change,tilt_difference,encoding_accuracy,encoding_avg_rt,encoding_n_trials,experimental_duration,filler_accuracy,filler_avg_rt,filler_n_trials,params,retrieval_accuracy,retrieval_avg_rt,retrieval_n_trials,total_bonus,total_payment,age,gender,gender_other,latinx,race
0,631bd90b9cb434415f3c1355,4206.0,False,"['../stimuli/version1_gray_lm/id026_25L_C.png', '../stimuli/version1_gray_lm/id048_25R_U.png', '../stimuli/version1_gray_lm/id048_00C_D.png']",37,1.0,0.0,026,25L,C,latinx,man,"[1, 2]",048,"['25R', '00C']","['U', 'D']",latinx,woman,0.8172199130058289,"[0.825563371181488, 0.8472700119018555]",encoding_practice,2,76356,0.0-2.0-0.0,627d0848837a688546a3dfbe,631bd3a3a9a29733dcc9b172,631bd8b23af53108328955a9,1.0,True,1.0,7svbnvvr79safymrys8b,"9/9/2022, 8:23:37 PM",Chrome,main_task_5,chris,prolific_afc5,,,,,,,,,,,,,,,,,,,,,,,,,,,,,,,,,,,,,,,,,,,,,,,,,,,,,,,,,,,,
1,631bd9109cb434415f3c1356,2160.0,False,"['../stimuli/version1_gray_lm/id048_25L_D.png', '../stimuli/version1_gray_lm/id025_25R_U.png', '../stimuli/version1_gray_lm/id048_00C_C.png']",39,2.0,1.0,025,25R,U,latinx,woman,"[0, 2]",048,"['25L', '00C']","['D', 'C']",latinx,woman,0.755620539188385,"[0.8455337285995483, 0.8234363794326782]",encoding_practice,4,80934,0.0-2.1-0.1,627d0848837a688546a3dfbe,631bd3a3a9a29733dcc9b172,631bd8b23af53108328955a9,2.0,True,2.0,7svbnvvr79safymrys8b,"9/9/2022, 8:23:42 PM",Chrome,main_task_5,chris,prolific_afc5,,,,,,,,,,,,,,,,,,,,,,,,,,,,,,,,,,,,,,,,,,,,,,,,,,,,,,,,,,,,
2,631bd9139cb434415f3c1357,2373.0,False,"['../stimuli/version1_gray_lm/id026_25R_U.png', '../stimuli/version1_gray_lm/id048_25L_C.png', '../stimuli/version1_gray_lm/id026_00C_D.png']",39,2.0,1.0,048,25L,C,latinx,woman,"[0, 2]",026,"['25R', '00C']","['U', 'D']",latinx,man,0.7979573607444763,"[0.8028600811958313, 0.8641510605812073]",encoding_practice,6,84299,0.0-2.2-0.2,627d0848837a688546a3dfbe,631bd3a3a9a29733dcc9b172,631bd8b23af53108328955a9,2.0,True,3.0,7svbnvvr79safymrys8b,"9/9/2022, 8:23:45 PM",Chrome,main_task_5,chris,prolific_afc5,True,,,,,,,,,,,,,,,,,,,,,,,,,,,,,,,,,,,,,,,,,,,,,,,,,,,,,,,,,,,
3,631bd91f9cb434415f3c1358,5418.0,False,"['../stimuli/version1_gray_lm/id049_00C_C.png', '../stimuli/version1_gray_lm/id043_25R_D.png', '../stimuli/version1_gray_lm/id043_25L_U.png']",37,1.0,0.0,049,00C,C,white,man,"[1, 2]",043,"['25R', '25L']","['D', 'U']",white,man,0.8645100593566895,"[0.8094856142997742, 0.8465712070465088]",encoding,9,96430,0.0-4.0,627d0848837a688546a3dfbe,631bd3a3a9a29733dcc9b172,631bd8b23af53108328955a9,1.0,True,1.0,7svbnvvr79safymrys8b,"9/9/2022, 8:23:57 PM",Chrome,main_task_5,chris,prolific_afc5,,"{'muct_id': '66', 'lighting': 'r', 'race_guess': 'w', 'gender_guess': 'm', 'quality': '3', 'quality_eyes': '3', 'quality_mouth': '3', 'quality_ears': '3', 'quality_hair': '3', 'quality_neck': '3', 'facial_hair': '0.0', 'notes': None, 'race_common': 'white', 'gender_common': 'man'}","{'muct_id': '58', 'lighting': 'q', 'race_guess': 'w', 'gender_guess': 'm', 'quality': '3', 'quality_eyes': '3', 'quality_mouth': '3', 'quality_ears': '3', 'quality_hair': '3', 'quality_neck': '3', 'facial_hair': '0.0', 'notes': None, 'race_common': 'white', 'gender_common': 'man'}",,,,,,,,,,,,,,,,,,,,,,,,,,,,,,,,,,,,,,,,,,,,,,,,,,,,,,,,,
4,631bd9249cb434415f3c1359,3991.0,False,"['../stimuli/version1_gray_lm/id156_00C_C.png', '../stimuli/version1_gray_lm/id053_25L_D.png', '../stimuli/version1_gray_lm/id053_25R_U.png']",37,1.0,0.0,156,00C,C,white,man,"[1, 2]",053,"['25L', '25R']","['D', 'U']",white,man,0.8538445830345154,"[0.8599304556846619, 0.8097671866416931]",encoding,11,101544,0.0-6.0,627d0848837a688546a3dfbe,631bd3a3a9a29733dcc9b172,631bd8b23af53108328955a9,1.0,True,2.0,7svbnvvr79safymrys8b,"9/9/2022, 8:24:02 PM",Chrome,main_task_5,chris,prolific_afc5,,"{'muct_id': '258', 'lighting': 'u', 'race_guess': 'w', 'gender_guess': 'm', 'quality': '2', 'quality_eyes': '3', 'quality_mouth': '3', 'quality_ears': '3', 'quality_hair': '2', 'quality_neck': '3', 'facial_hair': '0.0', 'notes': 'hair', 'race_common': 'white', 'gender_common': 'man'}","{'muct_id': '79', 'lighting': 'r', 'race_guess': 'i', 'gender_guess': 'm', 'quality': '2', 'quality_eyes': '2', 'quality_mouth': '3', 'quality_ears': '3', 'quality_hair': '2', 'quality_neck': '3', 'facial_hair': '0.0', 'notes': None, 'race_common': 'white', 'gender_common': 'man'}",,,,,,,,,,,,,,,,,,,,,,,,,,,,,,,,,,,,,,,,,,,,,,,,,,,,,,,,,
5,631bd9289cb434415f3c135a,3490.0,False,"['../stimuli/version1_gray_lm/id117_00C_D.png', '../stimuli/version1_gray_lm/id117_25L_C.png', '../stimuli/version1_gray_lm/id113_25R_U.png']",40,3.0,2.0,113,25R,U,black,man,"[0, 1]",117,"['00C', '25L']","['D', 'C']",black,man,0.8224820494651794,"[0.8935952186584473, 0.8798084855079651]",encoding,13,105654,0.0-8.0,627d0848837a688546a3dfbe,631bd3a3a9a29733dcc9b172,631bd8b23af53108328955a9,3.0,True,3.0,7svbnvvr79safymrys8b,"9/9/2022, 8:24:07 PM",Chrome,main_task_5,chris,prolific_afc5,,"{'muct_id': '407', 'lighting': 'x', 'race_guess': 'u', 'gender_guess': 'm', 'quality': '3', 'quality_eyes': '3', 'quality_mouth': '3', 'quality_ears': '3', 'quality_hair': '3', 'quality_neck': '3', 'facial_hair': '3.0', 'notes': 'beard', 'race_common': 'black', 'gender_common': 'man'}","{'muct_id': '417', 'lighting': 'w', 'race_guess': 'b', 'gender_guess': 'm', 'quality': '3', 'quality_eyes': '3', 'quality_mouth': '3', 'quality_ears': '3', 'quality_hair': '3', 'quality_neck': '3', 'facial_hair': '1.0', 'notes': 'mouth', 'race_common': 'black', 'gender_common': 'man'}",,,,,,,,,,,,,,,,,,,,,,,,,,,,,,,,,,,,,,,,,,,,,,,,,,,,,,,,,
6,631bd92b9cb434415f3c135b,2427.0,False,"['../stimuli/version1_gray_lm/id122_00C_D.png', '../stimuli/version1_gray_lm/id122_25R_C.png', '../stimuli/version1_gray_lm/id139_25L_U.png']",40,3.0,2.0,139,25L,U,black,man,"[0, 1]",122,"['00C', '25R']","['D', 'C']",black,man,0.7945126891136169,"[0.8157645463943481, 0.7975159883499146]",encoding,15,108731,0.0-10.0,627d0848837a688546a3dfbe,631bd3a3a9a29733dcc9b172,631bd8b23af53108328955a9,3.0,True,4.0,7svbnvvr79safymrys8b,"9/9/2022, 8:24:10 PM",Chrome,main_task_5,chris,prolific_afc5,,"{'muct_id': '623', 'lighting': 'y', 'race_guess': 'b', 'gender_guess': 'm', 'quality': '3', 'quality_eyes': '3', 'quality_mouth': '3', 'quality_ears': '3', 'quality_hair': '3', 'quality_neck': '3', 'facial_hair': '1.0', 'notes': 'mouth', 'race_common': 'black', 'gender_common': 'man'}","{'muct_id': '425', 'lighting': 'x', 'race_guess': 'b', 'gender_guess': 'm', 'quality': '3', 'quality_eyes': '3', 'quality_mouth': '3', 'quality_ears': '3', 'quality_hair': '3', 'quality_neck': '3', 'facial_hair': '2.0', 'notes': None, 'race_common': 'black', 'gender_common': 'man'}",,,,,,,,,,,,,,,,,,,,,,,,,,,,,,,,,,,,,,,,,,,,,,,,,,,,,,,,,
7,631bd9319cb434415f3c135c,4656.0,False,"['../stimuli/version1_gray_lm/id086_25R_U.png', '../stimuli/version1_gray_lm/id086_00C_C.png', '../stimuli/version1_gray_lm/id121_25L_D.png']",40,3.0,2.0,121,25L,D,black,man,"[0, 1]",086,"['25R', '00C']","['U', 'C']",black,man,0.8643362522125244,"[0.7829839587211609, 0.8492510318756104]",encoding,17,113958,0.0-12.0,627d0848837a688546a3dfbe,631bd3a3a9a29733dcc9b172,631bd8b23af53108328955a9,3.0,True,5.0,7svbnvvr79safymrys8b,"9/9/2022, 8:24:15 PM",Chrome,main_task_5,chris,prolific_afc5,,"{'muct_id': '423', 'lighting': 'w', 'race_guess': 'b', 'gender_guess': 'm', 'quality': '3', 'quality_eyes': '3', 'quality_mouth': '3', 'quality_ears': '3', 'quality_hair': '3', 'quality_neck': '3', 'facial_hair': '1.0', 'notes': None, 'race_common': 'black', 'gender_common': 'man'}","{'muct_id': '250', 'lighting': 't', 'race_guess': 'b', 'gender_guess': 'm', 'quality': '3', 'quality_eyes': '3', 'quality_mouth': '3', 'quality_ears': '3', 'quality_hair': '3', 'quality_neck': '3', 'facial_hair': '1.0', 'notes': None, 'race_common': 'black', 'gender_common': 'man'}",,,,,,,,,,,,,,,,,,,,,,,,,,,,,,,,,,,,,,,,,,,,,,,,,,,,,,,,,
8,631bd9369cb434415f3c135d,4990.0,False,"['../stimuli/version1_gray_lm/id016_25L_D.png', '../stimuli/version1_gray_lm/id068_00C_C.png', '../stimuli/version1_gray_lm/id016_25R_U.png']",37,2.0,1.0,068,00C,C,black,woman,"[0, 2]",016,"['25L', '25R']","['D', 'U']",black,woman,0.8297914862632751,"[0.8748856782913208, 0.7357763648033142]",encoding,19,119569,0.0-14.0,627d0848837a688546a3dfbe,631bd3a3a9a29733dcc9b172,631bd8b23af53108328955a9,1.0,False,6.0,7svbnvvr79safymrys8b,"9/9/2022, 8:24:20 PM",Chrome,main_task_5,chris,prolific_afc5,,"{'muct_id': '213', 'lighting': 'u', 'race_guess': 'b', 'gender_guess': 'w', 'quality': '3', 'quality_eyes': '3', 'quality_mouth': '3', 'quality_ears': '3', 'quality_hair': '3', 'quality_neck': '3', 'facial_hair': '0.0', 'notes': None, 'race_common': 'black', 'gender_common': 'woman'}","{'muct_id': '18', 'lighting': 'q', 'race_guess': 'b', 'gender_guess': 'w', 'quality': '3', 'quality_eyes': '3', 'quality_mouth': '3', 'quality_ears': '3', 'quality_hair': '3', 'quality_neck': '3', 'facial_hair': '0.0', 'notes': 'earrings', 'race_common': 'black', 'gender_common': 'woman'}",,,,,,,,,,,,,,,,,,,,,,,,,,,,,,,,,,,,,,,,,,,,,,,,,,,,,,,,,
9,631bd93d9cb434415f3c135e,5968.0,False,"['../stimuli/version1_gray_lm/id100_25R_U.png', '../stimuli/version1_gray_lm/id034_00C_D.png', '../stimuli/version1_gray_lm/id034_25L_C.png']",37,1.0,0.0,100,25R,U,white,man,"[1, 2]",034,"['00C', '25L']","['D', 'C']",white,man,0.7723164558410645,"[0.8462475538253784, 0.8475770950317383]",encoding,21,126198,0.0-16.0,627d0848837a688546a3dfbe,631bd3a3a9a29733dcc9b172,631bd8b23af53108328955a9,1.0,True,7.0,7svbnvvr79safymrys8b,"9/9/2022, 8:24:27 PM",Chrome,main_task_5,chris,prolific_afc5,,"{'muct_id': '280', 'lighting': 'u', 'race_guess': 'w', 'gender_guess': 'm', 'quality': '3', 'quality_eyes': '3', 'quality_mouth': '3', 'quality_ears': '3', 'quality_hair': '3', 'quality_neck': '3', 'facial_hair': '0.0', 'notes': None, 'race_common': 'white', 'gender_common': 'man'}","{'muct_id': '45', 'lighting': 'q', 'race_guess': 'w', 'gender_guess': 'm', 'quality': '3', 'quality_eyes': '3', 'quality_mouth': '3', 'quality_ears': '3', 'quality_hair': '3', 'quality_neck': '3', 'facial_hair': '0.0', 'notes': None, 'race_common': 'white', 'gender_common': 'man'}",,,,,,,,,,,,,,,,,,,,,,,,,,,,,,,,,,,,,,,,,,,,,,,,,,,,,,,,,
10,631bd9409cb434415f3c135f,2404.0,False,"['../stimuli/version1_gray_lm/id018_25R_U.png', '../stimuli/version1_gray_lm/id018_25L_D.png', '../stimuli/version1_gray_lm/id114_00C_C.png']",40,3.0,2.0,114,00C,C,white,woman,"[0, 1]",018,"['25R', '25L']","['U', 'D']",white,woman,0.8637323975563049,"[0.7759636044502258, 0.8591644167900085]",encoding,23,129278,0.0-18.0,627d0848837a688546a3dfbe,631bd3a3a9a29733dcc9b172,631bd8b23af53108328955a9,3.0,True,8.0,7svbnvvr79safymrys8b,"9/9/2022, 8:24:30 PM",Chrome,main_task_5,chris,prolific_afc5,,"{'muct_id': '410', 'lighting': 'w', 'race_guess': 'w', 'gender_guess': 'w', 'quality': '3', 'quality_eyes': '3', 'quality_mouth': '3', 'quality_ears': '3', 'quality_hair': '3', 'quality_neck': '3', 'facial_hair': '0.0', 'notes': 'makeup mouth', 'race_common': 'white', 'gender_common': 'woman'}","{'muct_id': '21', 'lighting': 'q', 'race_guess': 'w', 'gender_guess': 'w', 'quality': '3', 'quality_eyes': '3', 'quality_mouth': '3', 'quality_ears': '3', 'quality_hair': '3', 'quality_neck': '3', 'facial_hair': '0.0', 'notes': None, 'race_common': 'white', 'gender_common': 'woman'}",,,,,,,,,,,,,,,,,,,,,,,,,,,,,,,,,,,,,,,,,,,,,,,,,,,,,,,,,
11,631bd9449cb434415f3c1360,3054.0,False,"['../stimuli/version1_gray_lm/id090_25L_C.png', '../stimuli/version1_gray_lm/id090_00C_D.png', '../stimuli/version1_gray_lm/id128_25R_U.png']",40,3.0,2.0,128,25R,U,black,man,"[0, 1]",090,"['25L', '00C']","['C', 'D']",black,man,0.8397684097290039,"[0.8280301094055176, 0.8795903921127319]",encoding,25,132818,0.0-20.0,627d0848837a688546a3dfbe,631bd3a3a9a29733dcc9b172,631bd8b23af53108328955a9,3.0,True,9.0,7svbnvvr79safymrys8b,"9/9/2022, 8:24:34 PM",Chrome,main_task_5,chris,prolific_afc5,,"{'muct_id': '436', 'lighting': 'w', 'race_guess': 'b', 'gender_guess': 'm', 'quality': '3', 'quality_eyes': '3', 'quality_mouth': '3', 'quality_ears': '3', 'quality_hair': '3', 'quality_neck': '3', 'facial_hair': '3.0', 'notes': 'beard', 'race_common': 'black', 'gender_common': 'man'}","{'muct_id': '259', 'lighting': 'v', 'race_guess': 'b', 'gender_guess': 'm', 'quality': '3', 'quality_eyes': '3', 'quality_mouth': '3', 'quality_ears': '3', 'quality_hair': '3', 'quality_neck': '3', 'facial_hair': '2.0', 'notes': None, 'race_common': 'black', 'gender_common': 'man'}",,,,,,,,,,,,,,,,,,,,,,,,,,,,,,,,,,,,,,,,,,,,,,,,,,,,,,,,,
12,631bd9479cb434415f3c1361,2972.0,False,"['../stimuli/version1_gray_lm/id085_25R_D.png', '../stimuli/version1_gray_lm/id085_25L_U.png', '../stimuli/version1_gray_lm/id119_00C_C.png']",40,3.0,2.0,119,00C,C,black,man,"[0, 1]",085,"['25R', '25L']","['D', 'U']",black,man,0.8329627513885498,"[0.8420043587684631, 0.7466842532157898]",encoding,27,136341,0.0-22.0,627d0848837a688546a3dfbe,631bd3a3a9a29733dcc9b172,631bd8b23af53108328955a9,3.0,True,10.0,7svbnvvr79safymrys8b,"9/9/2022, 8:24:37 PM",Chrome,main_task_5,chris,prolific_afc5,,"{'muct_id': '420', 'lighting': 'w', 'race_guess': 'b', 'gender_guess': 'm', 'quality': '3', 'quality_eyes': '3', 'quality_mouth': '3', 'quality_ears': '3', 'quality_hair': '3', 'quality_neck': '3', 'facial_hair': '0.0', 'notes': None, 'race_common': 'black', 'gender_common': 'man'}","{'muct_id': '249', 'lighting': 't', 'race_guess': 'b', 'gender_guess': 'w', 'quality': '2', 'quality_eyes': '2', 'quality_mouth': '3', 'quality_ears': '3', 'quality_hair': '3', 'quality_neck': '3', 'facial_hair': '0.0', 'notes': None, 'race_common': 'black', 'gender_common': 'man'}",,,,,,,,,,,,,,,,,,,,,,,,,,,,,,,,,,,,,,,,,,,,,,,,,,,,,,,,,
13,631bd94b9cb434415f3c1362,3391.0,False,"['../stimuli/version1_gray_lm/id080_00C_C.png', '../stimuli/version1_gray_lm/id037_25R_D.png', '../stimuli/version1_gray_lm/id037_25L_U.png']",37,1.0,0.0,080,00C,C,white,man,"[1, 2]",037,"['25R', '25L']","['D', 'U']",white,man,0.8277982473373413,"[0.8582863211631775, 0.7745007872581482]",encoding,29,140107,0.0-24.0,627d0848837a688546a3dfbe,631bd3a3a9a29733dcc9b172,631bd8b23af53108328955a9,1.0,True,11.0,7svbnvvr79safymrys8b,"9/9/2022, 8:24:41 PM",Chrome,main_task_5,chris,prolific_afc5,,"{'muct_id': '240', 'lighting': 'u', 'race_guess': 'w', 'gender_guess': 'm', 'quality': '3', 'quality_eyes': '3', 'quality_mouth': '3', 'quality_ears': '3', 'quality_hair': '3', 'quality_neck': '3', 'facial_hair': '0.0', 'notes': 'mouth', 'race_common': 'white', 'gender_common': 'man'}","{'muct_id': '48', 'lighting': 'w', 'race_guess': 'w', 'gender_guess': 'm', 'quality': '3', 'quality_eyes': '3', 'quality_mouth': '3', 'quality_ears': '3', 'quality_hair': '3', 'quality_neck': '3', 'facial_hair': '0.0', 'notes': None, 'race_common': 'white', 'gender_common': 'man'}",,,,,,,,,,,,,,,,,,,,,,,,,,,,,,,,,,,,,,,,,,,,,,,,,,,,,,,,,
14,631bd94f9cb434415f3c1363,3662.0,False,"['../stimuli/version1_gray_lm/id109_25L_U.png', '../stimuli/version1_gray_lm/id141_00C_C.png', '../stimuli/version1_gray_lm/id109_25R_D.png']",39,2.0,1.0,141,00C,C,white,woman,"[0, 2]",109,"['25L', '25R']","['U', 'D']",white,woman,0.8281700611114502,"[0.8245269060134888, 0.853754460811615]",encoding,31,144360,0.0-26.0,627d0848837a688546a3dfbe,631bd3a3a9a29733dcc9b172,631bd8b23af53108328955a9,2.0,True,12.0,7svbnvvr79safymrys8b,"9/9/2022, 8:24:45 PM",Chrome,main_task_5,chris,prolific_afc5,,"{'muct_id': '77', 'lighting': 's', 'race_guess': 'w', 'gender_guess': 'w', 'quality': '3', 'quality_eyes': '3', 'quality_mouth': '3', 'quality_ears': '3', 'quality_hair': '3', 'quality_neck': '3', 'facial_hair': '0.0', 'notes': None, 'race_common': 'white', 'gender_common': 'woman'}","{'muct_id': '401', 'lighting': 'w', 'race_guess': 'w', 'gender_guess': 'w', 'quality': '3', 'quality_eyes': '3', 'quality_mouth': '3', 'quality_ears': '3', 'quality_hair': '3', 'quality_neck': '3', 'facial_hair': '0.0', 'notes': 'mouth', 'race_common': 'white', 'gender_common': 'woman'}",,,,,,,,,,,,,,,,,,,,,,,,,,,,,,,,,,,,,,,,,,,,,,,,,,,,,,,,,
15,631bd9539cb434415f3c1364,2801.0,False,"['../stimuli/version1_gray_lm/id057_00C_C.png', '../stimuli/version1_gray_lm/id040_25R_U.png', '../stimuli/version1_gray_lm/id040_25L_D.png']",37,1.0,0.0,057,00C,C,black,man,"[1, 2]",040,"['25R', '25L']","['U', 'D']",black,man,0.884845495223999,"[0.8143742084503174, 0.8529655933380127]",encoding,33,147763,0.0-28.0,627d0848837a688546a3dfbe,631bd3a3a9a29733dcc9b172,631bd8b23af53108328955a9,1.0,True,13.0,7svbnvvr79safymrys8b,"9/9/2022, 8:24:49 PM",Chrome,main_task_5,chris,prolific_afc5,,"{'muct_id': '83', 'lighting': 'r', 'race_guess': 'b', 'gender_guess': 'm', 'quality': '3', 'quality_eyes': '3', 'quality_mouth': '3', 'quality_ears': '3', 'quality_hair': '3', 'quality_neck': '3', 'facial_hair': '3.0', 'notes': None, 'race_common': 'black', 'gender_common': 'man'}","{'muct_id': '55', 'lighting': 'r', 'race_guess': 'b', 'gender_guess': 'm', 'quality': '3', 'quality_eyes': '3', 'quality_mouth': '3', 'quality_ears': '3', 'quality_hair': '3', 'quality_neck': '3', 'facial_hair': '3.0', 'notes': 'beard', 'race_common': 'black', 'gender_common': 'man'}",,,,,,,,,,,,,,,,,,,,,,,,,,,,,,,,,,,,,,,,,,,,,,,,,,,,,,,,,
16,631bd9559cb434415f3c1365,1974.0,False,"['../stimuli/version1_gray_lm/id131_25L_U.png', '../stimuli/version1_gray_lm/id131_25R_D.png', '../stimuli/version1_gray_lm/id061_00C_C.png']",40,3.0,2.0,061,00C,C,white,man,"[0, 1]",131,"['25L', '25R']","['U', 'D']",white,man,0.8612361550331116,"[0.8370739221572876, 0.8197820782661438]",encoding,35,150345,0.0-30.0,627d0848837a688546a3dfbe,631bd3a3a9a29733dcc9b172,631bd8b23af53108328955a9,3.0,True,14.0,7svbnvvr79safymrys8b,"9/9/2022, 8:24:51 PM",Chrome,main_task_5,chris,prolific_afc5,,"{'muct_id': '89', 'lighting': 'r', 'race_guess': 'w', 'gender_guess': 'm', 'quality': '3', 'quality_eyes': '3', 'quality_mouth': '3', 'quality_ears': '3', 'quality_hair': '3', 'quality_neck': '3', 'facial_hair': '2.0', 'notes': None, 'race_common': 'white', 'gender_common': 'man'}","{'muct_id': '442', 'lighting': 'x', 'race_guess': 'w', 'gender_guess': 'm', 'quality': '3', 'quality_eyes': '3', 'quality_mouth': '3', 'quality_ears': '3', 'quality_hair': '3', 'quality_neck': '3', 'facial_hair': '2.0', 'notes': None, 'race_common': 'white', 'gender_common': 'man'}",,,,,,,,,,,,,,,,,,,,,,,,,,,,,,,,,,,,,,,,,,,,,,,,,,,,,,,,,
17,631bd9579cb434415f3c1366,5903.0,False,"['../stimuli/version1_gray_lm/id071_25R_C.png', '../stimuli/version1_gray_lm/id008_25L_U.png', '../stimuli/version1_gray_lm/id008_00C_D.png']",39,1.0,0.0,071,25R,C,latinx,man,"[1, 2]",008,"['25L', '00C']","['U', 'D']",latinx,man,0.8417834639549255,"[0.820777177810669, 0.8663918972015381]",encoding_practice,2,104205,0.0-2.0-0.0,5f9e612e5e10814115cc780d,631bd3a3a9a29733dcc9b171,631bd8e68922ee016069e783,2.0,False,1.0,bvqww4r2dnwa1glf7o1f,"9/9/2022, 5:24:55 PM",Chrome,main_task_5,chris,prolific_afc5,,,,,,,,,,,,,,,,,,,,,,,,,,,,,,,,,,,,,,,,,,,,,,,,,,,,,,,,,,,,
18,631bd9589cb434415f3c1367,1755.0,False,"['../stimuli/version1_gray_lm/id055_00C_U.png', '../stimuli/version1_gray_lm/id055_25R_C.png', '../stimuli/version1_gray_lm/id036_25L_D.png']",40,3.0,2.0,036,25L,D,black,man,"[0, 1]",055,"['00C', '25R']","['U', 'C']",black,man,0.8589685559272766,"[0.823042631149292, 0.8429303765296936]",encoding,37,152773,0.0-32.0,627d0848837a688546a3dfbe,631bd3a3a9a29733dcc9b172,631bd8b23af53108328955a9,3.0,True,15.0,7svbnvvr79safymrys8b,"9/9/2022, 8:24:54 PM",Chrome,main_task_5,chris,prolific_afc5,,"{'muct_id': '47', 'lighting': 'q', 'race_guess': 'b', 'gender_guess': 'u', 'quality': '3', 'quality_eyes': '3', 'quality_mouth': '3', 'quality_ears': '3', 'quality_hair': '3', 'quality_neck': '3', 'facial_hair': '0.0', 'notes': None, 'race_common': 'black', 'gender_common': 'man'}","{'muct_id': '81', 'lighting': 'q', 'race_guess': 'b', 'gender_guess': 'm', 'quality': '3', 'quality_eyes': '3', 'quality_mouth': '3', 'quality_ears': '3', 'quality_hair': '3', 'quality_neck': '3', 'facial_hair': '0.0', 'notes': None, 'race_common': 'black', 'gender_common': 'man'}",,,,,,,,,,,,,,,,,,,,,,,,,,,,,,,,,,,,,,,,,,,,,,,,,,,,,,,,,
19,631bd95b9cb434415f3c1368,3264.0,False,"['../stimuli/version1_gray_lm/id032_25R_C.png', '../stimuli/version1_gray_lm/id032_00C_D.png', '../stimuli/version1_gray_lm/id047_25L_U.png']",40,3.0,2.0,047,25L,U,white,man,"[0, 1]",032,"['25R', '00C']","['C', 'D']",white,man,0.8087530136108398,"[0.8074866533279419, 0.8732470870018005]",encoding,39,156633,0.0-34.0,627d0848837a688546a3dfbe,631bd3a3a9a29733dcc9b172,631bd8b23af53108328955a9,3.0,True,16.0,7svbnvvr79safymrys8b,"9/9/2022, 8:24:57 PM",Chrome,main_task_5,chris,prolific_afc5,,"{'muct_id': '64', 'lighting': 'q', 'race_guess': 'w', 'gender_guess': 'm', 'quality': '3', 'quality_eyes': '3', 'quality_mouth': '3', 'quality_ears': '3', 'quality_hair': '3', 'quality_neck': '3', 'facial_hair': '0.0', 'notes': None, 'race_common': 'white', 'gender_common': 'man'}","{'muct_id': '43', 'lighting': 'q', 'race_guess': 'w', 'gender_guess': 'm', 'quality': '3', 'quality_eyes': '3', 'quality_mouth': '3', 'quality_ears': '3', 'quality_hair': '3', 'quality_neck': '3', 'facial_hair': '0.0', 'notes': None, 'race_common': 'white', 'gender_common': 'man'}",,,,,,,,,,,,,,,,,,,,,,,,,,,,,,,,,,,,,,,,,,,,,,,,,,,,,,,,,
20,631bd95f9cb434415f3c1369,2935.0,False,"['../stimuli/version1_gray_lm/id112_25L_D.png', '../stimuli/version1_gray_lm/id081_25R_U.png', '../stimuli/version1_gray_lm/id112_00C_C.png']",39,2.0,1.0,081,25R,U,black,man,"[0, 2]",112,"['25L', '00C']","['D', 'C']",black,man,0.834052562713623,"[0.8327156901359558, 0.8413169384002686]",encoding,41,159945,0.0-36.0,627d0848837a688546a3dfbe,631bd3a3a9a29733dcc9b172,631bd8b23af53108328955a9,2.0,True,17.0,7svbnvvr79safymrys8b,"9/9/2022, 8:25:01 PM",Chrome,main_task_5,chris,prolific_afc5,,"{'muct_id': '241', 'lighting': 't', 'race_guess': 'u', 'gender_guess': 'm', 'quality': '3', 'quality_eyes': '3', 'quality_mouth': '3', 'quality_ears': '3', 'quality_hair': '3', 'quality_neck': '3', 'facial_hair': '1.0', 'notes': 'mouth', 'race_common': 'black', 'gender_common': 'man'}","{'muct_id': '406', 'lighting': 'w', 'race_guess': 'b', 'gender_guess': 'm', 'quality': '3', 'quality_eyes': '3', 'quality_mouth': '3', 'quality_ears': '3', 'quality_hair': '3', 'quality_neck': '3', 'facial_hair': '1.0', 'notes': None, 'race_common': 'black', 'gender_common': 'man'}",,,,,,,,,,,,,,,,,,,,,,,,,,,,,,,,,,,,,,,,,,,,,,,,,,,,,,,,,
21,631bd9629cb434415f3c136a,2421.0,False,"['../stimuli/version1_gray_lm/id124_00C_C.png', '../stimuli/version1_gray_lm/id124_25R_U.png', '../stimuli/version1_gray_lm/id083_25L_D.png']",37,3.0,2.0,083,25L,D,black,man,"[0, 1]",124,"['00C', '25R']","['C', 'U']",black,man,0.874214768409729,"[0.8552448749542236, 0.824589729309082]",encoding,43,162879,0.0-38.0,627d0848837a688546a3dfbe,631bd3a3a9a29733dcc9b172,631bd8b23af53108328955a9,1.0,False,18.0,7svbnvvr79safymrys8b,"9/9/2022, 8:25:04 PM",Chrome,main_task_5,chris,prolific_afc5,,"{'muct_id': '243', 'lighting': 'v', 'race_guess': 'b', 'gender_guess': 'm', 'quality': '3', 'quality_eyes': '3', 'quality_mouth': '3', 'quality_ears': '3', 'quality_hair': '3', 'quality_neck': '3', 'facial_hair': '0.0', 'notes': None, 'race_common': 'black', 'gender_common': 'man'}","{'muct_id': '431', 'lighting': 'x', 'race_guess': 'b', 'gender_guess': 'u', 'quality': '3', 'quality_eyes': '3', 'quality_mouth': '3', 'quality_ears': '3', 'quality_hair': '3', 'quality_neck': '3', 'facial_hair': '0.0', 'notes': 'mouth', 'race_common': 'black', 'gender_common': 'man'}",,,,,,,,,,,,,,,,,,,,,,,,,,,,,,,,,,,,,,,,,,,,,,,,,,,,,,,,,
22,631bd9639cb434415f3c136b,4699.0,False,"['../stimuli/version1_gray_lm/id071_25L_C.png', '../stimuli/version1_gray_lm/id129_25R_D.png', '../stimuli/version1_gray_lm/id129_00C_U.png']",40,1.0,0.0,071,25L,C,latinx,man,"[1, 2]",129,"['25R', '00C']","['D', 'U']",latinx,man,0.8527224063873291,"[0.8516553640365601, 0.8414939045906067]",encoding_practice,4,116382,0.0-2.1-0.1,5f9e612e5e10814115cc780d,631bd3a3a9a29733dcc9b171,631bd8e68922ee016069e783,3.0,False,2.0,bvqww4r2dnwa1glf7o1f,"9/9/2022, 5:25:07 PM",Chrome,main_task_5,chris,prolific_afc5,,,,,,,,,,,,,,,,,,,,,,,,,,,,,,,,,,,,,,,,,,,,,,,,,,,,,,,,,,,,
23,631bd9649cb434415f3c136c,1866.0,False,"['../stimuli/version1_gray_lm/id050_25L_U.png', '../stimuli/version1_gray_lm/id063_00C_C.png', '../stimuli/version1_gray_lm/id050_25R_D.png']",39,2.0,1.0,063,00C,C,white,man,"[0, 2]",050,"['25L', '25R']","['U', 'D']",white,man,0.8627560138702393,"[0.7863359451293945, 0.8508886098861694]",encoding,45,165234,0.0-40.0,627d0848837a688546a3dfbe,631bd3a3a9a29733dcc9b172,631bd8b23af53108328955a9,2.0,True,19.0,7svbnvvr79safymrys8b,"9/9/2022, 8:25:06 PM",Chrome,main_task_5,chris,prolific_afc5,,"{'muct_id': '203', 'lighting': 'u', 'race_guess': 'i', 'gender_guess': 'm', 'quality': '2', 'quality_eyes': '2', 'quality_mouth': '3', 'quality_ears': '3', 'quality_hair': '3', 'quality_neck': '3', 'facial_hair': '2.0', 'notes': 'mouth', 'race_common': 'white', 'gender_common': 'man'}","{'muct_id': '70', 'lighting': 'r', 'race_guess': 'w', 'gender_guess': 'm', 'quality': '3', 'quality_eyes': '3', 'quality_mouth': '3', 'quality_ears': '3', 'quality_hair': '3', 'quality_neck': '3', 'facial_hair': '4.0', 'notes': 'beard', 'race_common': 'white', 'gender_common': 'man'}",,,,,,,,,,,,,,,,,,,,,,,,,,,,,,,,,,,,,,,,,,,,,,,,,,,,,,,,,
24,631bd9699cb434415f3c136d,4260.0,False,"['../stimuli/version1_gray_lm/id115_00C_C.png', '../stimuli/version1_gray_lm/id099_25R_D.png', '../stimuli/version1_gray_lm/id115_25L_U.png']",37,2.0,1.0,099,25R,D,white,man,"[0, 2]",115,"['00C', '25L']","['C', 'U']",white,man,0.8353608846664429,"[0.8907085061073303, 0.8482253551483154]",encoding,47,170378,0.0-42.0,627d0848837a688546a3dfbe,631bd3a3a9a29733dcc9b172,631bd8b23af53108328955a9,1.0,False,20.0,7svbnvvr79safymrys8b,"9/9/2022, 8:25:11 PM",Chrome,main_task_5,chris,prolific_afc5,,"{'muct_id': '278', 'lighting': 't', 'race_guess': 'w', 'gender_guess': 'm', 'quality': '3', 'quality_eyes': '3', 'quality_mouth': '3', 'quality_ears': '3', 'quality_hair': '3', 'quality_neck': '3', 'facial_hair': '0.0', 'notes': None, 'race_common': 'white', 'gender_common': 'man'}","{'muct_id': '412', 'lighting': 'x', 'race_guess': 'w', 'gender_guess': 'm', 'quality': '3', 'quality_eyes': '3', 'quality_mouth': '3', 'quality_ears': '3', 'quality_hair': '3', 'quality_neck': '3', 'facial_hair': '0.0', 'notes': None, 'race_common': 'white', 'gender_common': 'man'}",,,,,,,,,,,,,,,,,,,,,,,,,,,,,,,,,,,,,,,,,,,,,,,,,,,,,,,,,
25,631bd96a9cb434415f3c136e,4689.0,False,"['../stimuli/version1_gray_lm/id129_00C_D.png', '../stimuli/version1_gray_lm/id129_25R_U.png', '../stimuli/version1_gray_lm/id008_25L_C.png']",40,3.0,2.0,008,25L,C,latinx,man,"[0, 1]",129,"['00C', '25R']","['D', 'U']",latinx,man,0.8455116152763367,"[0.9172089695930481, 0.8396949768066406]",encoding_practice,6,122711,0.0-2.2-0.2,5f9e612e5e10814115cc780d,631bd3a3a9a29733dcc9b171,631bd8e68922ee016069e783,3.0,True,3.0,bvqww4r2dnwa1glf7o1f,"9/9/2022, 5:25:14 PM",Chrome,main_task_5,chris,prolific_afc5,,,,,,,,,,,,,,,,,,,,,,,,,,,,,,,,,,,,,,,,,,,,,,,,,,,,,,,,,,,,
26,631bd96d9cb434415f3c136f,3091.0,False,"['../stimuli/version1_gray_lm/id073_25R_U.png', '../stimuli/version1_gray_lm/id073_25L_D.png', '../stimuli/version1_gray_lm/id052_00C_C.png']",40,3.0,2.0,052,00C,C,white,man,"[0, 1]",073,"['25R', '25L']","['U', 'D']",white,man,0.8235117197036743,"[0.8360046744346619, 0.8398234844207764]",encoding,49,174086,0.0-44.0,627d0848837a688546a3dfbe,631bd3a3a9a29733dcc9b172,631bd8b23af53108328955a9,3.0,True,21.0,7svbnvvr79safymrys8b,"9/9/2022, 8:25:15 PM",Chrome,main_task_5,chris,prolific_afc5,,"{'muct_id': '75', 'lighting': 'q', 'race_guess': 'w', 'gender_guess': 'm', 'quality': '3', 'quality_eyes': '3', 'quality_mouth': '3', 'quality_ears': '3', 'quality_hair': '3', 'quality_neck': '3', 'facial_hair': '4.0', 'notes': 'beard', 'race_common': 'white', 'gender_common': 'man'}","{'muct_id': '225', 'lighting': 'u', 'race_guess': 'w', 'gender_guess': 'm', 'quality': '3', 'quality_eyes': '3', 'quality_mouth': '3', 'quality_ears': '3', 'quality_hair': '3', 'quality_neck': '3', 'facial_hair': '2.0', 'notes': None, 'race_common': 'white', 'gender_common': 'man'}",,,,,,,,,,,,,,,,,,,,,,,,,,,,,,,,,,,,,,,,,,,,,,,,,,,,,,,,,
27,631bd9739cb434415f3c1370,7686.0,False,"['../stimuli/version1_gray_lm/id008_25L_U.png', '../stimuli/version1_gray_lm/id129_00C_D.png', '../stimuli/version1_gray_lm/id129_25R_C.png']",37,1.0,0.0,008,25L,U,latinx,man,"[1, 2]",129,"['00C', '25R']","['D', 'C']",latinx,man,0.820777177810669,"[0.9172089695930481, 0.8260073661804199]",encoding_practice,8,132248,0.0-2.3-0.3,5f9e612e5e10814115cc780d,631bd3a3a9a29733dcc9b171,631bd8e68922ee016069e783,1.0,True,4.0,bvqww4r2dnwa1glf7o1f,"9/9/2022, 5:25:23 PM",Chrome,main_task_5,chris,prolific_afc5,,,,,,,,,,,,,,,,,,,,,,,,,,,,,,,,,,,,,,,,,,,,,,,,,,,,,,,,,,,,
28,631bd9749cb434415f3c1371,7037.0,False,"['../stimuli/version1_gray_lm/id091_25R_U.png', '../stimuli/version1_gray_lm/id091_25L_D.png', '../stimuli/version1_gray_lm/id065_00C_C.png']",39,3.0,2.0,065,00C,C,black,man,"[0, 1]",091,"['25R', '25L']","['U', 'D']",black,man,0.8925805687904358,"[0.8492058515548706, 0.8286541104316711]",encoding,51,181610,0.0-46.0,627d0848837a688546a3dfbe,631bd3a3a9a29733dcc9b172,631bd8b23af53108328955a9,2.0,False,22.0,7svbnvvr79safymrys8b,"9/9/2022, 8:25:22 PM",Chrome,main_task_5,chris,prolific_afc5,,"{'muct_id': '206', 'lighting': 't', 'race_guess': 'b', 'gender_guess': 'm', 'quality': '3', 'quality_eyes': '3', 'quality_mouth': '3', 'quality_ears': '3', 'quality_hair': '3', 'quality_neck': '3', 'facial_hair': '1.0', 'notes': None, 'race_common': 'black', 'gender_common': 'man'}","{'muct_id': '260', 'lighting': 't', 'race_guess': 'b', 'gender_guess': 'm', 'quality': '3', 'quality_eyes': '3', 'quality_mouth': '3', 'quality_ears': '3', 'quality_hair': '3', 'quality_neck': '3', 'facial_hair': '4.0', 'notes': 'beard', 'race_common': 'black', 'gender_common': 'man'}",,,,,,,,,,,,,,,,,,,,,,,,,,,,,,,,,,,,,,,,,,,,,,,,,,,,,,,,,
29,631bd9799cb434415f3c1372,5180.0,False,"['../stimuli/version1_gray_lm/id071_25L_C.png', '../stimuli/version1_gray_lm/id129_25R_D.png', '../stimuli/version1_gray_lm/id071_00C_U.png']",39,2.0,1.0,129,25R,D,latinx,man,"[0, 2]",071,"['25L', '00C']","['C', 'U']",latinx,man,0.8516553640365601,"[0.8527224063873291, 0.8518262505531311]",encoding_practice,10,138526,0.0-2.4-0.4,5f9e612e5e10814115cc780d,631bd3a3a9a29733dcc9b171,631bd8e68922ee016069e783,2.0,True,5.0,bvqww4r2dnwa1glf7o1f,"9/9/2022, 5:25:29 PM",Chrome,main_task_5,chris,prolific_afc5,True,,,,,,,,,,,,,,,,,,,,,,,,,,,,,,,,,,,,,,,,,,,,,,,,,,,,,,,,,,,
30,631bd9799cb434415f3c1373,4592.0,False,"['../stimuli/version1_gray_lm/id093_25R_D.png', '../stimuli/version1_gray_lm/id044_00C_C.png', '../stimuli/version1_gray_lm/id093_25L_U.png']",40,2.0,1.0,044,00C,C,white,man,"[0, 2]",093,"['25R', '25L']","['D', 'U']",white,man,0.8396022319793701,"[0.8248165845870972, 0.8253141641616821]",encoding,53,186709,0.0-48.0,627d0848837a688546a3dfbe,631bd3a3a9a29733dcc9b172,631bd8b23af53108328955a9,3.0,False,23.0,7svbnvvr79safymrys8b,"9/9/2022, 8:25:28 PM",Chrome,main_task_5,chris,prolific_afc5,,"{'muct_id': '60', 'lighting': 's', 'race_guess': 'u', 'gender_guess': 'm', 'quality': '3', 'quality_eyes': '3', 'quality_mouth': '3', 'quality_ears': '3', 'quality_hair': '3', 'quality_neck': '3', 'facial_hair': '2.0', 'notes': None, 'race_common': 'white', 'gender_common': 'man'}","{'muct_id': '263', 'lighting': 'u', 'race_guess': 'w', 'gender_guess': 'm', 'quality': '3', 'quality_eyes': '3', 'quality_mouth': '3', 'quality_ears': '3', 'quality_hair': '3', 'quality_neck': '3', 'facial_hair': '2.0', 'notes': None, 'race_common': 'white', 'gender_common': 'man'}",,,,,,,,,,,,,,,,,,,,,,,,,,,,,,,,,,,,,,,,,,,,,,,,,,,,,,,,,
31,631bd97c9cb434415f3c1374,2644.0,False,"['../stimuli/version1_gray_lm/id028_25L_D.png', '../stimuli/version1_gray_lm/id118_00C_C.png', '../stimuli/version1_gray_lm/id028_25R_U.png']",40,2.0,1.0,118,00C,C,black,man,"[0, 2]",028,"['25L', '25R']","['D', 'U']",black,man,0.850471019744873,"[0.8538510203361511, 0.820701539516449]",encoding,55,189723,0.0-50.0,627d0848837a688546a3dfbe,631bd3a3a9a29733dcc9b172,631bd8b23af53108328955a9,3.0,False,24.0,7svbnvvr79safymrys8b,"9/9/2022, 8:25:31 PM",Chrome,main_task_5,chris,prolific_afc5,,"{'muct_id': '419', 'lighting': 'x', 'race_guess': 'b', 'gender_guess': 'm', 'quality': '3', 'quality_eyes': '3', 'quality_mouth': '3', 'quality_ears': '3', 'quality_hair': '3', 'quality_neck': '3', 'facial_hair': '1.0', 'notes': None, 'race_common': 'black', 'gender_common': 'man'}","{'muct_id': '38', 'lighting': 'q', 'race_guess': 'b', 'gender_guess': 'm', 'quality': '3', 'quality_eyes': '3', 'quality_mouth': '3', 'quality_ears': '3', 'quality_hair': '3', 'quality_neck': '3', 'facial_hair': '2.0', 'notes': None, 'race_common': 'black', 'gender_common': 'man'}",,,,,,,,,,,,,,,,,,,,,,,,,,,,,,,,,,,,,,,,,,,,,,,,,,,,,,,,,
32,631bd9809cb434415f3c1375,3248.0,False,"['../stimuli/version1_gray_lm/id002_25R_U.png', '../stimuli/version1_gray_lm/id104_25L_D.png', '../stimuli/version1_gray_lm/id104_00C_C.png']",37,1.0,0.0,002,25R,U,white,man,"[1, 2]",104,"['25L', '00C']","['D', 'C']",white,man,0.8175423741340637,"[0.8564439415931702, 0.8687484264373779]",encoding,57,193360,0.0-52.0,627d0848837a688546a3dfbe,631bd3a3a9a29733dcc9b172,631bd8b23af53108328955a9,1.0,True,25.0,7svbnvvr79safymrys8b,"9/9/2022, 8:25:34 PM",Chrome,main_task_5,chris,prolific_afc5,,"{'muct_id': '2', 'lighting': 'r', 'race_guess': 'w', 'gender_guess': 'm', 'quality': '3', 'quality_eyes': '3', 'quality_mouth': '3', 'quality_ears': '3', 'quality_hair': '3', 'quality_neck': '3', 'facial_hair': '2.0', 'notes': 'eyes', 'race_common': 'white', 'gender_common': 'man'}","{'muct_id': '287', 'lighting': 't', 'race_guess': 'w', 'gender_guess': 'm', 'quality': '3', 'quality_eyes': '3', 'quality_mouth': '3', 'quality_ears': '3', 'quality_hair': '3', 'quality_neck': '3', 'facial_hair': '2.0', 'notes': None, 'race_common': 'white', 'gender_common': 'man'}",,,,,,,,,,,,,,,,,,,,,,,,,,,,,,,,,,,,,,,,,,,,,,,,,,,,,,,,,
33,631bd9859cb434415f3c1376,4148.0,False,"['../stimuli/version1_gray_lm/id140_00C_D.png', '../stimuli/version1_gray_lm/id127_25R_U.png', '../stimuli/version1_gray_lm/id140_25L_C.png']",39,2.0,1.0,127,25R,U,black,woman,"[0, 2]",140,"['00C', '25L']","['D', 'C']",black,woman,0.790308952331543,"[0.8531489968299866, 0.8079278469085693]",encoding,59,197957,0.0-54.0,627d0848837a688546a3dfbe,631bd3a3a9a29733dcc9b172,631bd8b23af53108328955a9,2.0,True,26.0,7svbnvvr79safymrys8b,"9/9/2022, 8:25:39 PM",Chrome,main_task_5,chris,prolific_afc5,,"{'muct_id': '435', 'lighting': 'x', 'race_guess': 'b', 'gender_guess': 'w', 'quality': '3', 'quality_eyes': '3', 'quality_mouth': '3', 'quality_ears': '3', 'quality_hair': '3', 'quality_neck': '3', 'facial_hair': '0.0', 'notes': 'bandana', 'race_common': 'black', 'gender_common': 'woman'}","{'muct_id': '624', 'lighting': 'y', 'race_guess': 'b', 'gender_guess': 'w', 'quality': '3', 'quality_eyes': '3', 'quality_mouth': '3', 'quality_ears': '3', 'quality_hair': '3', 'quality_neck': '3', 'facial_hair': '0.0', 'notes': 'headband, earring', 'race_common': 'black', 'gender_common': 'woman'}",,,,,,,,,,,,,,,,,,,,,,,,,,,,,,,,,,,,,,,,,,,,,,,,,,,,,,,,,
34,631bd98e9cb434415f3c1377,8521.0,False,"['../stimuli/version1_gray_lm/id003_25R_U.png', '../stimuli/version1_gray_lm/id125_00C_C.png', '../stimuli/version1_gray_lm/id125_25L_D.png']",37,1.0,0.0,003,25R,U,white,woman,"[1, 2]",125,"['00C', '25L']","['C', 'D']",white,woman,0.8280043601989746,"[0.8504757285118103, 0.8705277442932129]",encoding,61,207276,0.0-56.0,627d0848837a688546a3dfbe,631bd3a3a9a29733dcc9b172,631bd8b23af53108328955a9,1.0,True,27.0,7svbnvvr79safymrys8b,"9/9/2022, 8:25:48 PM",Chrome,main_task_5,chris,prolific_afc5,,"{'muct_id': '3', 'lighting': 's', 'race_guess': 'i', 'gender_guess': 'w', 'quality': '2', 'quality_eyes': '3', 'quality_mouth': '3', 'quality_ears': '3', 'quality_hair': '2', 'quality_neck': '3', 'facial_hair': '0.0', 'notes': 'hair', 'race_common': 'white', 'gender_common': 'woman'}","{'muct_id': '433', 'lighting': 'x', 'race_guess': 'w', 'gender_guess': 'w', 'quality': '3', 'quality_eyes': '3', 'quality_mouth': '3', 'quality_ears': '3', 'quality_hair': '3', 'quality_neck': '3', 'facial_hair': '0.0', 'notes': None, 'race_common': 'white', 'gender_common': 'woman'}",,,,,,,,,,,,,,,,,,,,,,,,,,,,,,,,,,,,,,,,,,,,,,,,,,,,,,,,,
35,631bd98f9cb434415f3c1378,4169.0,False,"['../stimuli/version1_gray_lm/id097_25L_D.png', '../stimuli/version1_gray_lm/id083_25R_C.png', '../stimuli/version1_gray_lm/id083_00C_U.png']",37,1.0,0.0,097,25L,D,black,man,"[1, 2]",083,"['25R', '00C']","['C', 'U']",black,man,0.83622145652771,"[0.8013870120048523, 0.75100177526474]",encoding,13,160070,0.0-4.0,5f9e612e5e10814115cc780d,631bd3a3a9a29733dcc9b171,631bd8e68922ee016069e783,1.0,True,1.0,bvqww4r2dnwa1glf7o1f,"9/9/2022, 5:25:51 PM",Chrome,main_task_5,chris,prolific_afc5,,"{'muct_id': '269', 'lighting': 'u', 'race_guess': 'b', 'gender_guess': 'm', 'quality': '3', 'quality_eyes': '3', 'quality_mouth': '3', 'quality_ears': '3', 'quality_hair': '3', 'quality_neck': '3', 'facial_hair': '0.0', 'notes': None, 'race_common': 'black', 'gender_common': 'man'}","{'muct_id': '243', 'lighting': 'v', 'race_guess': 'b', 'gender_guess': 'm', 'quality': '3', 'quality_eyes': '3', 'quality_mouth': '3', 'quality_ears': '3', 'quality_hair': '3', 'quality_neck': '3', 'facial_hair': '0.0', 'notes': None, 'race_common': 'black', 'gender_common': 'man'}",,,,,,,,,,,,,,,,,,,,,,,,,,,,,,,,,,,,,,,,,,,,,,,,,,,,,,,,,
36,631bd9939cb434415f3c1379,3972.0,False,"['../stimuli/version1_gray_lm/id022_00C_C.png', '../stimuli/version1_gray_lm/id133_25L_U.png', '../stimuli/version1_gray_lm/id022_25R_D.png']",37,2.0,1.0,133,25L,U,black,woman,"[0, 2]",022,"['00C', '25R']","['C', 'D']",black,woman,0.8206362128257751,"[0.8870819807052612, 0.827724814414978]",encoding,63,211890,0.0-58.0,627d0848837a688546a3dfbe,631bd3a3a9a29733dcc9b172,631bd8b23af53108328955a9,1.0,False,28.0,7svbnvvr79safymrys8b,"9/9/2022, 8:25:53 PM",Chrome,main_task_5,chris,prolific_afc5,,"{'muct_id': '601', 'lighting': 'y', 'race_guess': 'b', 'gender_guess': 'w', 'quality': '3', 'quality_eyes': '3', 'quality_mouth': '3', 'quality_ears': '3', 'quality_hair': '3', 'quality_neck': '3', 'facial_hair': '0.0', 'notes': 'mouth', 'race_common': 'black', 'gender_common': 'woman'}","{'muct_id': '26', 'lighting': 'q', 'race_guess': 'b', 'gender_guess': 'w', 'quality': '3', 'quality_eyes': '3', 'quality_mouth': '3', 'quality_ears': '3', 'quality_hair': '3', 'quality_neck': '3', 'facial_hair': '0.0', 'notes': 'earrings', 'race_common': 'black', 'gender_common': 'woman'}",,,,,,,,,,,,,,,,,,,,,,,,,,,,,,,,,,,,,,,,,,,,,,,,,,,,,,,,,
37,631bd9999cb434415f3c137a,8352.0,False,"['../stimuli/version1_gray_lm/id005_00C_C.png', '../stimuli/version1_gray_lm/id077_25L_U.png', '../stimuli/version1_gray_lm/id077_25R_D.png']",39,1.0,0.0,005,00C,C,black,woman,"[1, 2]",077,"['25L', '25R']","['U', 'D']",black,woman,0.8300433158874512,"[0.8132347464561462, 0.8321653008460999]",encoding,15,169839,0.0-6.0,5f9e612e5e10814115cc780d,631bd3a3a9a29733dcc9b171,631bd8e68922ee016069e783,2.0,False,2.0,bvqww4r2dnwa1glf7o1f,"9/9/2022, 5:26:01 PM",Chrome,main_task_5,chris,prolific_afc5,,"{'muct_id': '5', 'lighting': 'q', 'race_guess': 'b', 'gender_guess': 'w', 'quality': '3', 'quality_eyes': '3', 'quality_mouth': '3', 'quality_ears': '3', 'quality_hair': '3', 'quality_neck': '3', 'facial_hair': '0.0', 'notes': 'hat', 'race_common': 'black', 'gender_common': 'woman'}","{'muct_id': '235', 'lighting': 'u', 'race_guess': 'b', 'gender_guess': 'w', 'quality': '3', 'quality_eyes': '3', 'quality_mouth': '3', 'quality_ears': '3', 'quality_hair': '3', 'quality_neck': '3', 'facial_hair': '0.0', 'notes': 'earrings', 'race_common': 'black', 'gender_common': 'woman'}",,,,,,,,,,,,,,,,,,,,,,,,,,,,,,,,,,,,,,,,,,,,,,,,,,,,,,,,,
38,631bd9999cb434415f3c137b,5663.0,False,"['../stimuli/version1_gray_lm/id136_00C_C.png', '../stimuli/version1_gray_lm/id103_25L_D.png', '../stimuli/version1_gray_lm/id103_25R_U.png']",37,1.0,0.0,136,00C,C,black,woman,"[1, 2]",103,"['25L', '25R']","['D', 'U']",black,woman,0.8723787069320679,"[0.8758910298347473, 0.8692502975463867]",encoding,65,218137,0.0-60.0,627d0848837a688546a3dfbe,631bd3a3a9a29733dcc9b172,631bd8b23af53108328955a9,1.0,True,29.0,7svbnvvr79safymrys8b,"9/9/2022, 8:25:59 PM",Chrome,main_task_5,chris,prolific_afc5,,"{'muct_id': '616', 'lighting': 'y', 'race_guess': 'b', 'gender_guess': 'w', 'quality': '3', 'quality_eyes': '3', 'quality_mouth': '3', 'quality_ears': '3', 'quality_hair': '3', 'quality_neck': '3', 'facial_hair': '0.0', 'notes': 'earrings', 'race_common': 'black', 'gender_common': 'woman'}","{'muct_id': '285', 'lighting': 'v', 'race_guess': 'b', 'gender_guess': 'w', 'quality': '3', 'quality_eyes': '3', 'quality_mouth': '3', 'quality_ears': '3', 'quality_hair': '3', 'quality_neck': '3', 'facial_hair': '0.0', 'notes': 'earrings', 'race_common': 'black', 'gender_common': 'woman'}",,,,,,,,,,,,,,,,,,,,,,,,,,,,,,,,,,,,,,,,,,,,,,,,,,,,,,,,,
39,631bd99c9cb434415f3c137c,2635.0,False,"['../stimuli/version1_gray_lm/id116_25L_D.png', '../stimuli/version1_gray_lm/id116_25R_U.png', '../stimuli/version1_gray_lm/id092_00C_C.png']",40,3.0,2.0,092,00C,C,white,man,"[0, 1]",116,"['25L', '25R']","['D', 'U']",white,man,0.8726173043251038,"[0.8285034894943237, 0.8168432712554932]",encoding,67,221436,0.0-62.0,627d0848837a688546a3dfbe,631bd3a3a9a29733dcc9b172,631bd8b23af53108328955a9,3.0,True,30.0,7svbnvvr79safymrys8b,"9/9/2022, 8:26:02 PM",Chrome,main_task_5,chris,prolific_afc5,,"{'muct_id': '261', 'lighting': 'v', 'race_guess': 'w', 'gender_guess': 'm', 'quality': '2', 'quality_eyes': '2', 'quality_mouth': '3', 'quality_ears': '3', 'quality_hair': '3', 'quality_neck': '3', 'facial_hair': '0.0', 'notes': None, 'race_common': 'white', 'gender_common': 'man'}","{'muct_id': '414', 'lighting': 'w', 'race_guess': 'w', 'gender_guess': 'm', 'quality': '3', 'quality_eyes': '3', 'quality_mouth': '3', 'quality_ears': '3', 'quality_hair': '3', 'quality_neck': '3', 'facial_hair': '0.0', 'notes': None, 'race_common': 'white', 'gender_common': 'man'}",,,,,,,,,,,,,,,,,,,,,,,,,,,,,,,,,,,,,,,,,,,,,,,,,,,,,,,,,
40,631bd9a09cb434415f3c137d,2998.0,False,"['../stimuli/version1_gray_lm/id012_25L_D.png', '../stimuli/version1_gray_lm/id149_25R_C.png', '../stimuli/version1_gray_lm/id149_00C_U.png']",37,1.0,0.0,012,25L,D,white,man,"[1, 2]",149,"['25R', '00C']","['C', 'U']",white,man,0.8482975363731384,"[0.7760299444198608, 0.8242371678352356]",encoding,69,224943,0.0-64.0,627d0848837a688546a3dfbe,631bd3a3a9a29733dcc9b172,631bd8b23af53108328955a9,1.0,True,31.0,7svbnvvr79safymrys8b,"9/9/2022, 8:26:06 PM",Chrome,main_task_5,chris,prolific_afc5,,"{'muct_id': '12', 'lighting': 'q', 'race_guess': 'i', 'gender_guess': 'm', 'quality': '3', 'quality_eyes': '3', 'quality_mouth': '3', 'quality_ears': '3', 'quality_hair': '3', 'quality_neck': '3', 'facial_hair': '2.0', 'notes': None, 'race_common': 'white', 'gender_common': 'man'}","{'muct_id': '416', 'lighting': 'w', 'race_guess': 'w', 'gender_guess': 'm', 'quality': '3', 'quality_eyes': '3', 'quality_mouth': '3', 'quality_ears': '3', 'quality_hair': '3', 'quality_neck': '3', 'facial_hair': '2.0', 'notes': None, 'race_common': 'white', 'gender_common': 'man'}",,,,,,,,,,,,,,,,,,,,,,,,,,,,,,,,,,,,,,,,,,,,,,,,,,,,,,,,,
41,631bd9a39cb434415f3c137e,9016.0,False,"['../stimuli/version1_gray_lm/id099_25L_D.png', '../stimuli/version1_gray_lm/id099_00C_C.png', '../stimuli/version1_gray_lm/id034_25R_U.png']",40,3.0,2.0,034,25R,U,white,man,"[0, 1]",099,"['25L', '00C']","['D', 'C']",white,man,0.8308742642402649,"[0.8469396829605103, 0.8504483103752136]",encoding,17,179799,0.0-8.0,5f9e612e5e10814115cc780d,631bd3a3a9a29733dcc9b171,631bd8e68922ee016069e783,3.0,True,3.0,bvqww4r2dnwa1glf7o1f,"9/9/2022, 5:26:11 PM",Chrome,main_task_5,chris,prolific_afc5,,"{'muct_id': '45', 'lighting': 'q', 'race_guess': 'w', 'gender_guess': 'm', 'quality': '3', 'quality_eyes': '3', 'quality_mouth': '3', 'quality_ears': '3', 'quality_hair': '3', 'quality_neck': '3', 'facial_hair': '0.0', 'notes': None, 'race_common': 'white', 'gender_common': 'man'}","{'muct_id': '278', 'lighting': 't', 'race_guess': 'w', 'gender_guess': 'm', 'quality': '3', 'quality_eyes': '3', 'quality_mouth': '3', 'quality_ears': '3', 'quality_hair': '3', 'quality_neck': '3', 'facial_hair': '0.0', 'notes': None, 'race_common': 'white', 'gender_common': 'man'}",,,,,,,,,,,,,,,,,,,,,,,,,,,,,,,,,,,,,,,,,,,,,,,,,,,,,,,,,
42,631bd9a39cb434415f3c137f,3018.0,False,"['../stimuli/version1_gray_lm/id056_25R_D.png', '../stimuli/version1_gray_lm/id105_25L_U.png', '../stimuli/version1_gray_lm/id056_00C_C.png']",39,2.0,1.0,105,25L,U,black,man,"[0, 2]",056,"['25R', '00C']","['D', 'C']",black,man,0.8225566744804382,"[0.8599368333816528, 0.8556334376335144]",encoding,71,228357,0.0-66.0,627d0848837a688546a3dfbe,631bd3a3a9a29733dcc9b172,631bd8b23af53108328955a9,2.0,True,32.0,7svbnvvr79safymrys8b,"9/9/2022, 8:26:09 PM",Chrome,main_task_5,chris,prolific_afc5,,"{'muct_id': '290', 'lighting': 't', 'race_guess': 'b', 'gender_guess': 'm', 'quality': '3', 'quality_eyes': '3', 'quality_mouth': '3', 'quality_ears': '3', 'quality_hair': '3', 'quality_neck': '3', 'facial_hair': '2.0', 'notes': None, 'race_common': 'black', 'gender_common': 'man'}","{'muct_id': '82', 'lighting': 'q', 'race_guess': 'b', 'gender_guess': 'm', 'quality': '3', 'quality_eyes': '3', 'quality_mouth': '3', 'quality_ears': '3', 'quality_hair': '3', 'quality_neck': '3', 'facial_hair': '1.0', 'notes': None, 'race_common': 'black', 'gender_common': 'man'}",,,,,,,,,,,,,,,,,,,,,,,,,,,,,,,,,,,,,,,,,,,,,,,,,,,,,,,,,
43,631bd9a69cb434415f3c1380,2563.0,False,"['../stimuli/version1_gray_lm/id107_25L_U.png', '../stimuli/version1_gray_lm/id004_00C_C.png', '../stimuli/version1_gray_lm/id107_25R_D.png']",37,2.0,1.0,004,00C,C,black,man,"[0, 2]",107,"['25L', '25R']","['U', 'D']",black,man,0.8468521237373352,"[0.8199091553688049, 0.8193733096122742]",encoding,73,231381,0.0-68.0,627d0848837a688546a3dfbe,631bd3a3a9a29733dcc9b172,631bd8b23af53108328955a9,1.0,False,33.0,7svbnvvr79safymrys8b,"9/9/2022, 8:26:12 PM",Chrome,main_task_5,chris,prolific_afc5,,"{'muct_id': '4', 'lighting': 'q', 'race_guess': 'b', 'gender_guess': 'm', 'quality': '3', 'quality_eyes': '3', 'quality_mouth': '3', 'quality_ears': '3', 'quality_hair': '3', 'quality_neck': '3', 'facial_hair': '2.0', 'notes': None, 'race_common': 'black', 'gender_common': 'man'}","{'muct_id': '297', 'lighting': 't', 'race_guess': 'b', 'gender_guess': 'm', 'quality': '3', 'quality_eyes': '3', 'quality_mouth': '3', 'quality_ears': '3', 'quality_hair': '3', 'quality_neck': '3', 'facial_hair': '4.0', 'notes': 'beard', 'race_common': 'black', 'gender_common': 'man'}",,,,,,,,,,,,,,,,,,,,,,,,,,,,,,,,,,,,,,,,,,,,,,,,,,,,,,,,,
44,631bd9a79cb434415f3c1381,2954.0,False,"['../stimuli/version1_gray_lm/id063_00C_U.png', '../stimuli/version1_gray_lm/id063_25L_C.png', '../stimuli/version1_gray_lm/id052_25R_D.png']",40,3.0,2.0,052,25R,D,white,man,"[0, 1]",063,"['00C', '25L']","['U', 'C']",white,man,0.8038879036903381,"[0.8280654549598694, 0.8786912560462952]",encoding,19,183863,0.0-10.0,5f9e612e5e10814115cc780d,631bd3a3a9a29733dcc9b171,631bd8e68922ee016069e783,3.0,True,4.0,bvqww4r2dnwa1glf7o1f,"9/9/2022, 5:26:15 PM",Chrome,main_task_5,chris,prolific_afc5,,"{'muct_id': '75', 'lighting': 'q', 'race_guess': 'w', 'gender_guess': 'm', 'quality': '3', 'quality_eyes': '3', 'quality_mouth': '3', 'quality_ears': '3', 'quality_hair': '3', 'quality_neck': '3', 'facial_hair': '4.0', 'notes': 'beard', 'race_common': 'white', 'gender_common': 'man'}","{'muct_id': '203', 'lighting': 'u', 'race_guess': 'i', 'gender_guess': 'm', 'quality': '2', 'quality_eyes': '2', 'quality_mouth': '3', 'quality_ears': '3', 'quality_hair': '3', 'quality_neck': '3', 'facial_hair': '2.0', 'notes': 'mouth', 'race_common': 'white', 'gender_common': 'man'}",,,,,,,,,,,,,,,,,,,,,,,,,,,,,,,,,,,,,,,,,,,,,,,,,,,,,,,,,
45,631bd9aa9cb434415f3c1382,2180.0,False,"['../stimuli/version1_gray_lm/id088_25L_D.png', '../stimuli/version1_gray_lm/id029_00C_C.png', '../stimuli/version1_gray_lm/id088_25R_U.png']",39,2.0,1.0,029,00C,C,white,woman,"[0, 2]",088,"['25L', '25R']","['D', 'U']",white,woman,0.823814868927002,"[0.8030483722686768, 0.7882093787193298]",encoding,21,186846,0.0-12.0,5f9e612e5e10814115cc780d,631bd3a3a9a29733dcc9b171,631bd8e68922ee016069e783,2.0,True,5.0,bvqww4r2dnwa1glf7o1f,"9/9/2022, 5:26:18 PM",Chrome,main_task_5,chris,prolific_afc5,,"{'muct_id': '39', 'lighting': 'r', 'race_guess': 'w', 'gender_guess': 'w', 'quality': '3', 'quality_eyes': '3', 'quality_mouth': '3', 'quality_ears': '3', 'quality_hair': '3', 'quality_neck': '3', 'facial_hair': '0.0', 'notes': 'earrings hair', 'race_common': 'white', 'gender_common': 'woman'}","{'muct_id': '252', 'lighting': 't', 'race_guess': 'w', 'gender_guess': 'w', 'quality': '3', 'quality_eyes': '3', 'quality_mouth': '3', 'quality_ears': '3', 'quality_hair': '3', 'quality_neck': '3', 'facial_hair': '0.0', 'notes': 'hair', 'race_common': 'white', 'gender_common': 'woman'}",,,,,,,,,,,,,,,,,,,,,,,,,,,,,,,,,,,,,,,,,,,,,,,,,,,,,,,,,
46,631bd9ab9cb434415f3c1383,2972.0,False,"['../stimuli/version1_gray_lm/id137_00C_C.png', '../stimuli/version1_gray_lm/id097_25L_U.png', '../stimuli/version1_gray_lm/id097_25R_D.png']",37,1.0,0.0,137,00C,C,black,man,"[1, 2]",097,"['25L', '25R']","['U', 'D']",black,man,0.8485629558563232,"[0.7912301421165466, 0.8496285676956177]",encoding,75,236073,0.0-70.0,627d0848837a688546a3dfbe,631bd3a3a9a29733dcc9b172,631bd8b23af53108328955a9,1.0,True,34.0,7svbnvvr79safymrys8b,"9/9/2022, 8:26:17 PM",Chrome,main_task_5,chris,prolific_afc5,,"{'muct_id': '617', 'lighting': 'y', 'race_guess': 'b', 'gender_guess': 'w', 'quality': '3', 'quality_eyes': '3', 'quality_mouth': '3', 'quality_ears': '3', 'quality_hair': '3', 'quality_neck': '3', 'facial_hair': '0.0', 'notes': 'mouth', 'race_common': 'black', 'gender_common': 'man'}","{'muct_id': '269', 'lighting': 'u', 'race_guess': 'b', 'gender_guess': 'm', 'quality': '3', 'quality_eyes': '3', 'quality_mouth': '3', 'quality_ears': '3', 'quality_hair': '3', 'quality_neck': '3', 'facial_hair': '0.0', 'notes': None, 'race_common': 'black', 'gender_common': 'man'}",,,,,,,,,,,,,,,,,,,,,,,,,,,,,,,,,,,,,,,,,,,,,,,,,,,,,,,,,
47,631bd9ae9cb434415f3c1384,2542.0,False,"['../stimuli/version1_gray_lm/id088_25L_D.png', '../stimuli/version1_gray_lm/id013_25R_U.png', '../stimuli/version1_gray_lm/id013_00C_C.png']",37,1.0,0.0,088,25L,D,white,woman,"[1, 2]",013,"['25R', '00C']","['U', 'C']",white,woman,0.8030483722686768,"[0.855946958065033, 0.8684787154197693]",encoding,77,239306,0.0-72.0,627d0848837a688546a3dfbe,631bd3a3a9a29733dcc9b172,631bd8b23af53108328955a9,1.0,True,35.0,7svbnvvr79safymrys8b,"9/9/2022, 8:26:20 PM",Chrome,main_task_5,chris,prolific_afc5,,"{'muct_id': '252', 'lighting': 't', 'race_guess': 'w', 'gender_guess': 'w', 'quality': '3', 'quality_eyes': '3', 'quality_mouth': '3', 'quality_ears': '3', 'quality_hair': '3', 'quality_neck': '3', 'facial_hair': '0.0', 'notes': 'hair', 'race_common': 'white', 'gender_common': 'woman'}","{'muct_id': '14', 'lighting': 'q', 'race_guess': 'w', 'gender_guess': 'w', 'quality': '3', 'quality_eyes': '3', 'quality_mouth': '3', 'quality_ears': '3', 'quality_hair': '3', 'quality_neck': '3', 'facial_hair': '0.0', 'notes': None, 'race_common': 'white', 'gender_common': 'woman'}",,,,,,,,,,,,,,,,,,,,,,,,,,,,,,,,,,,,,,,,,,,,,,,,,,,,,,,,,
48,631bd9b19cb434415f3c1385,2878.0,False,"['../stimuli/version1_gray_lm/id143_25R_C.png', '../stimuli/version1_gray_lm/id074_25L_U.png', '../stimuli/version1_gray_lm/id143_00C_D.png']",39,2.0,1.0,074,25L,U,white,man,"[0, 2]",143,"['25R', '00C']","['C', 'D']",white,man,0.8062930107116699,"[0.8368167877197266, 0.861963152885437]",encoding,79,242608,0.0-74.0,627d0848837a688546a3dfbe,631bd3a3a9a29733dcc9b172,631bd8b23af53108328955a9,2.0,True,36.0,7svbnvvr79safymrys8b,"9/9/2022, 8:26:23 PM",Chrome,main_task_5,chris,prolific_afc5,,"{'muct_id': '229', 'lighting': 't', 'race_guess': 'w', 'gender_guess': 'm', 'quality': '3', 'quality_eyes': '3', 'quality_mouth': '3', 'quality_ears': '3', 'quality_hair': '3', 'quality_neck': '3', 'facial_hair': '2.0', 'notes': 'mouth', 'race_common': 'white', 'gender_common': 'man'}","{'muct_id': '90', 'lighting': 'q', 'race_guess': 'u', 'gender_guess': 'm', 'quality': '2', 'quality_eyes': '3', 'quality_mouth': '3', 'quality_ears': '2', 'quality_hair': '3', 'quality_neck': '3', 'facial_hair': '4.0', 'notes': 'beard', 'race_common': 'white', 'gender_common': 'man'}",,,,,,,,,,,,,,,,,,,,,,,,,,,,,,,,,,,,,,,,,,,,,,,,,,,,,,,,,
49,631bd9b49cb434415f3c1386,9806.0,False,"['../stimuli/version1_gray_lm/id119_00C_C.png', '../stimuli/version1_gray_lm/id036_25L_U.png', '../stimuli/version1_gray_lm/id036_25R_D.png']",39,1.0,0.0,119,00C,C,black,man,"[1, 2]",036,"['25L', '25R']","['U', 'D']",black,man,0.8329627513885498,"[0.7920295000076294, 0.8179123997688293]",encoding,23,197185,0.0-14.0,5f9e612e5e10814115cc780d,631bd3a3a9a29733dcc9b171,631bd8e68922ee016069e783,2.0,False,6.0,bvqww4r2dnwa1glf7o1f,"9/9/2022, 5:26:28 PM",Chrome,main_task_5,chris,prolific_afc5,,"{'muct_id': '420', 'lighting': 'w', 'race_guess': 'b', 'gender_guess': 'm', 'quality': '3', 'quality_eyes': '3', 'quality_mouth': '3', 'quality_ears': '3', 'quality_hair': '3', 'quality_neck': '3', 'facial_hair': '0.0', 'notes': None, 'race_common': 'black', 'gender_common': 'man'}","{'muct_id': '47', 'lighting': 'q', 'race_guess': 'b', 'gender_guess': 'u', 'quality': '3', 'quality_eyes': '3', 'quality_mouth': '3', 'quality_ears': '3', 'quality_hair': '3', 'quality_neck': '3', 'facial_hair': '0.0', 'notes': None, 'race_common': 'black', 'gender_common': 'man'}",,,,,,,,,,,,,,,,,,,,,,,,,,,,,,,,,,,,,,,,,,,,,,,,,,,,,,,,,
50,631bd9b79cb434415f3c1387,4810.0,False,"['../stimuli/version1_gray_lm/id039_25L_D.png', '../stimuli/version1_gray_lm/id041_25R_U.png', '../stimuli/version1_gray_lm/id041_00C_C.png']",39,1.0,0.0,039,25L,D,white,man,"[1, 2]",041,"['25R', '00C']","['U', 'C']",white,man,0.8687136173248291,"[0.8482251167297363, 0.8946332931518555]",encoding,81,247888,0.0-76.0,627d0848837a688546a3dfbe,631bd3a3a9a29733dcc9b172,631bd8b23af53108328955a9,2.0,False,37.0,7svbnvvr79safymrys8b,"9/9/2022, 8:26:29 PM",Chrome,main_task_5,chris,prolific_afc5,,"{'muct_id': '52', 'lighting': 'q', 'race_guess': 'w', 'gender_guess': 'm', 'quality': '3', 'quality_eyes': '3', 'quality_mouth': '3', 'quality_ears': '3', 'quality_hair': '3', 'quality_neck': '3', 'facial_hair': '0.0', 'notes': None, 'race_common': 'white', 'gender_common': 'man'}","{'muct_id': '56', 'lighting': 'q', 'race_guess': 'w', 'gender_guess': 'm', 'quality': '3', 'quality_eyes': '3', 'quality_mouth': '3', 'quality_ears': '3', 'quality_hair': '3', 'quality_neck': '3', 'facial_hair': '0.0', 'notes': None, 'race_common': 'white', 'gender_common': 'man'}",,,,,,,,,,,,,,,,,,,,,,,,,,,,,,,,,,,,,,,,,,,,,,,,,,,,,,,,,
51,631bd9b89cb434415f3c1388,5359.0,False,"['../stimuli/version1_gray_lm/id006_25L_C.png', '../stimuli/version1_gray_lm/id010_00C_U.png', '../stimuli/version1_gray_lm/id006_25R_D.png']",39,2.0,1.0,010,00C,U,latinx,man,"[0, 2]",006,"['25L', '25R']","['C', 'D']",latinx,man,0.8378931283950806,"[0.8524004817008972, 0.8448865413665771]",encoding_practice,2,256976,0.0-2.0-0.0,62ba9df7bf9e8e2ef0501f94,631bd3a3a9a29733dcc9b171,631bd871e902f7af77e5f6f3,2.0,True,1.0,ssovnp524s3w7qtwz87d,"9/9/2022, 7:26:25 PM",Chrome,main_task_5,chris,prolific_afc5,,,,,,,,,,,,,,,,,,,,,,,,,,,,,,,,,,,,,,,,,,,,,,,,,,,,,,,,,,,,
52,631bd9ba9cb434415f3c1389,3235.0,False,"['../stimuli/version1_gray_lm/id064_25L_U.png', '../stimuli/version1_gray_lm/id064_25R_D.png', '../stimuli/version1_gray_lm/id132_00C_C.png']",40,3.0,2.0,132,00C,C,black,man,"[0, 1]",064,"['25L', '25R']","['U', 'D']",black,man,0.8432913422584534,"[0.8070446848869324, 0.8336070775985718]",encoding,83,251572,0.0-78.0,627d0848837a688546a3dfbe,631bd3a3a9a29733dcc9b172,631bd8b23af53108328955a9,3.0,True,38.0,7svbnvvr79safymrys8b,"9/9/2022, 8:26:32 PM",Chrome,main_task_5,chris,prolific_afc5,,"{'muct_id': '450', 'lighting': 'w', 'race_guess': 'b', 'gender_guess': 'm', 'quality': '3', 'quality_eyes': '3', 'quality_mouth': '3', 'quality_ears': '3', 'quality_hair': '3', 'quality_neck': '3', 'facial_hair': '4.0', 'notes': 'mouth', 'race_common': 'black', 'gender_common': 'man'}","{'muct_id': '204', 'lighting': 't', 'race_guess': 'b', 'gender_guess': 'm', 'quality': '3', 'quality_eyes': '3', 'quality_mouth': '3', 'quality_ears': '3', 'quality_hair': '3', 'quality_neck': '3', 'facial_hair': '1.0', 'notes': None, 'race_common': 'black', 'gender_common': 'man'}",,,,,,,,,,,,,,,,,,,,,,,,,,,,,,,,,,,,,,,,,,,,,,,,,,,,,,,,,
53,631bd9be9cb434415f3c138a,3910.0,False,"['../stimuli/version1_gray_lm/id006_00C_C.png', '../stimuli/version1_gray_lm/id006_25L_D.png', '../stimuli/version1_gray_lm/id010_25R_U.png']",37,3.0,2.0,010,25R,U,latinx,man,"[0, 1]",006,"['00C', '25L']","['C', 'D']",latinx,man,0.8611446619033813,"[0.8316729068756104, 0.8555487990379333]",encoding_practice,4,263509,0.0-2.1-0.1,62ba9df7bf9e8e2ef0501f94,631bd3a3a9a29733dcc9b171,631bd871e902f7af77e5f6f3,1.0,False,2.0,ssovnp524s3w7qtwz87d,"9/9/2022, 7:26:32 PM",Chrome,main_task_5,chris,prolific_afc5,,,,,,,,,,,,,,,,,,,,,,,,,,,,,,,,,,,,,,,,,,,,,,,,,,,,,,,,,,,,
54,631bd9bf9cb434415f3c138b,0.0,True,"['../stimuli/version1_gray_lm/id102_25R_U.png', '../stimuli/version1_gray_lm/id102_25L_D.png', '../stimuli/version1_gray_lm/id031_00C_C.png']",,3.0,2.0,031,00C,C,white,woman,"[0, 1]",102,"['25R', '25L']","['U', 'D']",white,woman,0.8678648471832275,"[0.8125907182693481, 0.8224856853485107]",encoding,25,207851,0.0-16.0,5f9e612e5e10814115cc780d,631bd3a3a9a29733dcc9b171,631bd8e68922ee016069e783,,False,7.0,bvqww4r2dnwa1glf7o1f,"9/9/2022, 5:26:39 PM",Chrome,main_task_5,chris,prolific_afc5,,"{'muct_id': '42', 'lighting': 'q', 'race_guess': 'u', 'gender_guess': 'w', 'quality': '2', 'quality_eyes': '3', 'quality_mouth': '3', 'quality_ears': '2', 'quality_hair': '3', 'quality_neck': '3', 'facial_hair': '0.0', 'notes': 'mouth', 'race_common': 'white', 'gender_common': 'woman'}","{'muct_id': '283', 'lighting': 't', 'race_guess': 'i', 'gender_guess': 'w', 'quality': '3', 'quality_eyes': '3', 'quality_mouth': '3', 'quality_ears': '3', 'quality_hair': '3', 'quality_neck': '3', 'facial_hair': '0.0', 'notes': 'pottu', 'race_common': 'white', 'gender_common': 'woman'}",,,,,,,,,,,,,,,,,,,,,,,,,,,,,,,,,,,,,,,,,,,,,,,,,,,,,,,,,
55,631bd9c19cb434415f3c138c,5850.0,False,"['../stimuli/version1_gray_lm/id072_25R_D.png', '../stimuli/version1_gray_lm/id072_25L_U.png', '../stimuli/version1_gray_lm/id030_00C_C.png']",37,3.0,2.0,030,00C,C,black,man,"[0, 1]",072,"['25R', '25L']","['D', 'U']",black,man,0.8255519866943359,"[0.8145816922187805, 0.8451998233795166]",encoding,85,257965,0.0-80.0,627d0848837a688546a3dfbe,631bd3a3a9a29733dcc9b172,631bd8b23af53108328955a9,1.0,False,39.0,7svbnvvr79safymrys8b,"9/9/2022, 8:26:39 PM",Chrome,main_task_5,chris,prolific_afc5,,"{'muct_id': '41', 'lighting': 'r', 'race_guess': 'b', 'gender_guess': 'm', 'quality': '3', 'quality_eyes': '3', 'quality_mouth': '3', 'quality_ears': '3', 'quality_hair': '3', 'quality_neck': '3', 'facial_hair': '0.0', 'notes': None, 'race_common': 'black', 'gender_common': 'man'}","{'muct_id': '224', 'lighting': 't', 'race_guess': 'u', 'gender_guess': 'm', 'quality': '3', 'quality_eyes': '3', 'quality_mouth': '3', 'quality_ears': '3', 'quality_hair': '3', 'quality_neck': '3', 'facial_hair': '0.0', 'notes': 'smile', 'race_common': 'black', 'gender_common': 'man'}",,,,,,,,,,,,,,,,,,,,,,,,,,,,,,,,,,,,,,,,,,,,,,,,,,,,,,,,,
56,631bd9c49cb434415f3c138d,2966.0,False,"['../stimuli/version1_gray_lm/id029_00C_C.png', '../stimuli/version1_gray_lm/id029_25L_D.png', '../stimuli/version1_gray_lm/id148_25R_U.png']",40,3.0,2.0,148,25R,U,white,woman,"[0, 1]",029,"['00C', '25L']","['C', 'D']",white,woman,0.8285102844238281,"[0.823814868927002, 0.8793820142745972]",encoding,87,261450,0.0-82.0,627d0848837a688546a3dfbe,631bd3a3a9a29733dcc9b172,631bd8b23af53108328955a9,3.0,True,40.0,7svbnvvr79safymrys8b,"9/9/2022, 8:26:42 PM",Chrome,main_task_5,chris,prolific_afc5,,"{'muct_id': '415', 'lighting': 'w', 'race_guess': 'w', 'gender_guess': 'w', 'quality': '3', 'quality_eyes': '3', 'quality_mouth': '3', 'quality_ears': '3', 'quality_hair': '3', 'quality_neck': '3', 'facial_hair': '0.0', 'notes': None, 'race_common': 'white', 'gender_common': 'woman'}","{'muct_id': '39', 'lighting': 'r', 'race_guess': 'w', 'gender_guess': 'w', 'quality': '3', 'quality_eyes': '3', 'quality_mouth': '3', 'quality_ears': '3', 'quality_hair': '3', 'quality_neck': '3', 'facial_hair': '0.0', 'notes': 'earrings hair', 'race_common': 'white', 'gender_common': 'woman'}",,,,,,,,,,,,,,,,,,,,,,,,,,,,,,,,,,,,,,,,,,,,,,,,,,,,,,,,,
57,631bd9c59cb434415f3c138e,5069.0,False,"['../stimuli/version1_gray_lm/id126_25R_C.png', '../stimuli/version1_gray_lm/id059_25L_U.png', '../stimuli/version1_gray_lm/id126_00C_D.png']",39,2.0,1.0,059,25L,U,black,woman,"[0, 2]",126,"['25R', '00C']","['C', 'D']",black,woman,0.7958464622497559,"[0.8141570091247559, 0.8472485542297363]",encoding,27,214104,0.0-18.0,5f9e612e5e10814115cc780d,631bd3a3a9a29733dcc9b171,631bd8e68922ee016069e783,2.0,True,8.0,bvqww4r2dnwa1glf7o1f,"9/9/2022, 5:26:45 PM",Chrome,main_task_5,chris,prolific_afc5,,"{'muct_id': '86', 'lighting': 'q', 'race_guess': 'b', 'gender_guess': 'w', 'quality': '3', 'quality_eyes': '3', 'quality_mouth': '3', 'quality_ears': '3', 'quality_hair': '3', 'quality_neck': '3', 'facial_hair': '0.0', 'notes': 'earrings', 'race_common': 'black', 'gender_common': 'woman'}","{'muct_id': '434', 'lighting': 'w', 'race_guess': 'b', 'gender_guess': 'w', 'quality': '3', 'quality_eyes': '3', 'quality_mouth': '3', 'quality_ears': '3', 'quality_hair': '3', 'quality_neck': '3', 'facial_hair': '0.0', 'notes': 'earrings', 'race_common': 'black', 'gender_common': 'woman'}",,,,,,,,,,,,,,,,,,,,,,,,,,,,,,,,,,,,,,,,,,,,,,,,,,,,,,,,,
58,631bd9c89cb434415f3c138f,1925.0,False,"['../stimuli/version1_gray_lm/id123_00C_U.png', '../stimuli/version1_gray_lm/id148_25L_D.png', '../stimuli/version1_gray_lm/id123_25R_C.png']",39,2.0,1.0,148,25L,D,white,woman,"[0, 2]",123,"['00C', '25R']","['U', 'C']",white,woman,0.8393746018409729,"[0.8018196225166321, 0.7788952589035034]",encoding,29,216768,0.0-20.0,5f9e612e5e10814115cc780d,631bd3a3a9a29733dcc9b171,631bd8e68922ee016069e783,2.0,True,9.0,bvqww4r2dnwa1glf7o1f,"9/9/2022, 5:26:48 PM",Chrome,main_task_5,chris,prolific_afc5,,"{'muct_id': '415', 'lighting': 'w', 'race_guess': 'w', 'gender_guess': 'w', 'quality': '3', 'quality_eyes': '3', 'quality_mouth': '3', 'quality_ears': '3', 'quality_hair': '3', 'quality_neck': '3', 'facial_hair': '0.0', 'notes': None, 'race_common': 'white', 'gender_common': 'woman'}","{'muct_id': '76', 'lighting': 'q', 'race_guess': 'w', 'gender_guess': 'w', 'quality': '2', 'quality_eyes': '2', 'quality_mouth': '3', 'quality_ears': '2', 'quality_hair': '2', 'quality_neck': '3', 'facial_hair': '0.0', 'notes': 'hair', 'race_common': 'white', 'gender_common': 'woman'}",,,,,,,,,,,,,,,,,,,,,,,,,,,,,,,,,,,,,,,,,,,,,,,,,,,,,,,,,
59,631bd9ca9cb434415f3c1390,9355.0,False,"['../stimuli/version1_gray_lm/id010_25R_C.png', '../stimuli/version1_gray_lm/id010_25L_D.png', '../stimuli/version1_gray_lm/id006_00C_U.png']",40,3.0,2.0,006,00C,U,latinx,man,"[0, 1]",010,"['25R', '25L']","['C', 'D']",latinx,man,0.8726516366004944,"[0.8236857056617737, 0.8304309248924255]",encoding_practice,6,274608,0.0-2.2-0.2,62ba9df7bf9e8e2ef0501f94,631bd3a3a9a29733dcc9b171,631bd871e902f7af77e5f6f3,3.0,True,3.0,ssovnp524s3w7qtwz87d,"9/9/2022, 7:26:43 PM",Chrome,main_task_5,chris,prolific_afc5,,,,,,,,,,,,,,,,,,,,,,,,,,,,,,,,,,,,,,,,,,,,,,,,,,,,,,,,,,,,
60,631bd9cb9cb434415f3c1391,2678.0,False,"['../stimuli/version1_gray_lm/id039_25L_U.png', '../stimuli/version1_gray_lm/id146_00C_D.png', '../stimuli/version1_gray_lm/id146_25R_C.png']",37,1.0,0.0,039,25L,U,white,man,"[1, 2]",146,"['00C', '25R']","['D', 'C']",white,man,0.8038492798805237,"[0.8501778841018677, 0.8372709155082703]",encoding,31,220105,0.0-22.0,5f9e612e5e10814115cc780d,631bd3a3a9a29733dcc9b171,631bd8e68922ee016069e783,1.0,True,10.0,bvqww4r2dnwa1glf7o1f,"9/9/2022, 5:26:51 PM",Chrome,main_task_5,chris,prolific_afc5,,"{'muct_id': '52', 'lighting': 'q', 'race_guess': 'w', 'gender_guess': 'm', 'quality': '3', 'quality_eyes': '3', 'quality_mouth': '3', 'quality_ears': '3', 'quality_hair': '3', 'quality_neck': '3', 'facial_hair': '0.0', 'notes': None, 'race_common': 'white', 'gender_common': 'man'}","{'muct_id': '254', 'lighting': 'v', 'race_guess': 'w', 'gender_guess': 'm', 'quality': '2', 'quality_eyes': '2', 'quality_mouth': '3', 'quality_ears': '3', 'quality_hair': '2', 'quality_neck': '3', 'facial_hair': '0.0', 'notes': 'hair', 'race_common': 'white', 'gender_common': 'man'}",,,,,,,,,,,,,,,,,,,,,,,,,,,,,,,,,,,,,,,,,,,,,,,,,,,,,,,,,
61,631bd9ce9cb434415f3c1392,9295.699999999255,,"<p style='font-size: 150%'><b>You have finished Part 1!</b></p><p>On this section, you averaged <b>75% accuracy</b>.</p><p>At this rate, you won't earn any bonus above the base rate.<br>Take your time on the next parts to make sure you can make a bonus!</p><p>Click 'Next' to continue to Part 2.</p>",,,,,,,,,,,,,,,,,bonus_update,89,271081,0.0-84.0,627d0848837a688546a3dfbe,631bd3a3a9a29733dcc9b172,631bd8b23af53108328955a9,,,,7svbnvvr79safymrys8b,"9/9/2022, 8:26:52 PM",Chrome,main_task_5,chris,prolific_afc5,,,,0,encoding,0.0,,,,,,,,,,,,,,,,,,,,,,,,,,,,,,,,,,,,,,,,,,,,,,,,,,,,,,
62,631bd9d19cb434415f3c1393,5351.0,False,"['../stimuli/version1_gray_lm/id010_25R_D.png', '../stimuli/version1_gray_lm/id006_25L_C.png', '../stimuli/version1_gray_lm/id006_00C_U.png']",37,1.0,0.0,010,25R,D,latinx,man,"[1, 2]",006,"['25L', '00C']","['C', 'U']",latinx,man,0.8238852620124817,"[0.8524004817008972, 0.8726516366004944]",encoding_practice,8,282024,0.0-2.3-0.3,62ba9df7bf9e8e2ef0501f94,631bd3a3a9a29733dcc9b171,631bd871e902f7af77e5f6f3,1.0,True,4.0,ssovnp524s3w7qtwz87d,"9/9/2022, 7:26:50 PM",Chrome,main_task_5,chris,prolific_afc5,True,,,,,,,,,,,,,,,,,,,,,,,,,,,,,,,,,,,,,,,,,,,,,,,,,,,,,,,,,,,
63,631bd9d19cb434415f3c1394,5413.0,False,"['../stimuli/version1_gray_lm/id040_25L_D.png', '../stimuli/version1_gray_lm/id098_00C_C.png', '../stimuli/version1_gray_lm/id040_25R_U.png']",39,2.0,1.0,098,00C,C,black,man,"[0, 2]",040,"['25L', '25R']","['D', 'U']",black,man,0.8472102880477905,"[0.8529655933380127, 0.8143742084503174]",encoding,33,226072,0.0-24.0,5f9e612e5e10814115cc780d,631bd3a3a9a29733dcc9b171,631bd8e68922ee016069e783,2.0,True,11.0,bvqww4r2dnwa1glf7o1f,"9/9/2022, 5:26:57 PM",Chrome,main_task_5,chris,prolific_afc5,,"{'muct_id': '274', 'lighting': 't', 'race_guess': 'b', 'gender_guess': 'm', 'quality': '3', 'quality_eyes': '3', 'quality_mouth': '3', 'quality_ears': '3', 'quality_hair': '3', 'quality_neck': '3', 'facial_hair': '4.0', 'notes': None, 'race_common': 'black', 'gender_common': 'man'}","{'muct_id': '55', 'lighting': 'r', 'race_guess': 'b', 'gender_guess': 'm', 'quality': '3', 'quality_eyes': '3', 'quality_mouth': '3', 'quality_ears': '3', 'quality_hair': '3', 'quality_neck': '3', 'facial_hair': '3.0', 'notes': 'beard', 'race_common': 'black', 'gender_common': 'man'}",,,,,,,,,,,,,,,,,,,,,,,,,,,,,,,,,,,,,,,,,,,,,,,,,,,,,,,,,
64,631bd9d59cb434415f3c1395,3823.0,False,"['../stimuli/version1_gray_lm/id112_25R_U.png', '../stimuli/version1_gray_lm/id112_25L_D.png', '../stimuli/version1_gray_lm/id091_00C_C.png']",40,3.0,2.0,091,00C,C,black,man,"[0, 1]",112,"['25R', '25L']","['U', 'D']",black,man,0.8385646939277649,"[0.8019675016403198, 0.8327156901359558]",encoding,35,230407,0.0-26.0,5f9e612e5e10814115cc780d,631bd3a3a9a29733dcc9b171,631bd8e68922ee016069e783,3.0,True,12.0,bvqww4r2dnwa1glf7o1f,"9/9/2022, 5:27:01 PM",Chrome,main_task_5,chris,prolific_afc5,,"{'muct_id': '260', 'lighting': 't', 'race_guess': 'b', 'gender_guess': 'm', 'quality': '3', 'quality_eyes': '3', 'quality_mouth': '3', 'quality_ears': '3', 'quality_hair': '3', 'quality_neck': '3', 'facial_hair': '4.0', 'notes': 'beard', 'race_common': 'black', 'gender_common': 'man'}","{'muct_id': '406', 'lighting': 'w', 'race_guess': 'b', 'gender_guess': 'm', 'quality': '3', 'quality_eyes': '3', 'quality_mouth': '3', 'quality_ears': '3', 'quality_hair': '3', 'quality_neck': '3', 'facial_hair': '1.0', 'notes': None, 'race_common': 'black', 'gender_common': 'man'}",,,,,,,,,,,,,,,,,,,,,,,,,,,,,,,,,,,,,,,,,,,,,,,,,,,,,,,,,
65,631bd9d99cb434415f3c1396,2902.0,False,"['../stimuli/version1_gray_lm/id054_00C_U.png', '../stimuli/version1_gray_lm/id054_25R_C.png', '../stimuli/version1_gray_lm/id018_25L_D.png']",40,3.0,2.0,018,25L,D,white,woman,"[0, 1]",054,"['00C', '25R']","['U', 'C']",white,woman,0.8591644167900085,"[0.8471009135246277, 0.8144792914390564]",encoding,37,233871,0.0-28.0,5f9e612e5e10814115cc780d,631bd3a3a9a29733dcc9b171,631bd8e68922ee016069e783,3.0,True,13.0,bvqww4r2dnwa1glf7o1f,"9/9/2022, 5:27:05 PM",Chrome,main_task_5,chris,prolific_afc5,,"{'muct_id': '21', 'lighting': 'q', 'race_guess': 'w', 'gender_guess': 'w', 'quality': '3', 'quality_eyes': '3', 'quality_mouth': '3', 'quality_ears': '3', 'quality_hair': '3', 'quality_neck': '3', 'facial_hair': '0.0', 'notes': None, 'race_common': 'white', 'gender_common': 'woman'}","{'muct_id': '80', 'lighting': 's', 'race_guess': 'b', 'gender_guess': 'w', 'quality': '3', 'quality_eyes': '3', 'quality_mouth': '3', 'quality_ears': '3', 'quality_hair': '3', 'quality_neck': '3', 'facial_hair': '0.0', 'notes': 'earrings', 'race_common': 'white', 'gender_common': 'woman'}",,,,,,,,,,,,,,,,,,,,,,,,,,,,,,,,,,,,,,,,,,,,,,,,,,,,,,,,,
66,631bd9e19cb434415f3c1397,7296.0,False,"['../stimuli/version1_gray_lm/id104_25R_U.png', '../stimuli/version1_gray_lm/id093_00C_C.png', '../stimuli/version1_gray_lm/id104_25L_D.png']",39,2.0,1.0,093,00C,C,white,man,"[0, 2]",104,"['25R', '25L']","['U', 'D']",white,man,0.8572120070457458,"[0.7843561768531799, 0.8564439415931702]",encoding,39,241753,0.0-30.0,5f9e612e5e10814115cc780d,631bd3a3a9a29733dcc9b171,631bd8e68922ee016069e783,2.0,True,14.0,bvqww4r2dnwa1glf7o1f,"9/9/2022, 5:27:13 PM",Chrome,main_task_5,chris,prolific_afc5,,"{'muct_id': '263', 'lighting': 'u', 'race_guess': 'w', 'gender_guess': 'm', 'quality': '3', 'quality_eyes': '3', 'quality_mouth': '3', 'quality_ears': '3', 'quality_hair': '3', 'quality_neck': '3', 'facial_hair': '2.0', 'notes': None, 'race_common': 'white', 'gender_common': 'man'}","{'muct_id': '287', 'lighting': 't', 'race_guess': 'w', 'gender_guess': 'm', 'quality': '3', 'quality_eyes': '3', 'quality_mouth': '3', 'quality_ears': '3', 'quality_hair': '3', 'quality_neck': '3', 'facial_hair': '2.0', 'notes': None, 'race_common': 'white', 'gender_common': 'man'}",,,,,,,,,,,,,,,,,,,,,,,,,,,,,,,,,,,,,,,,,,,,,,,,,,,,,,,,,
67,631bd9ea9cb434415f3c1398,2936.0,False,"['../stimuli/version1_gray_lm/id149_00C_D.png', '../stimuli/version1_gray_lm/id149_25L_C.png', '../stimuli/version1_gray_lm/id073_25R_U.png']",40,3.0,2.0,073,25R,U,white,man,"[0, 1]",149,"['00C', '25L']","['D', 'C']",white,man,0.8360046744346619,"[0.8829626441001892, 0.8039061427116394]",encoding,11,306880,0.0-4.0,62ba9df7bf9e8e2ef0501f94,631bd3a3a9a29733dcc9b171,631bd871e902f7af77e5f6f3,3.0,True,1.0,ssovnp524s3w7qtwz87d,"9/9/2022, 7:27:15 PM",Chrome,main_task_5,chris,prolific_afc5,,"{'muct_id': '225', 'lighting': 'u', 'race_guess': 'w', 'gender_guess': 'm', 'quality': '3', 'quality_eyes': '3', 'quality_mouth': '3', 'quality_ears': '3', 'quality_hair': '3', 'quality_neck': '3', 'facial_hair': '2.0', 'notes': None, 'race_common': 'white', 'gender_common': 'man'}","{'muct_id': '416', 'lighting': 'w', 'race_guess': 'w', 'gender_guess': 'm', 'quality': '3', 'quality_eyes': '3', 'quality_mouth': '3', 'quality_ears': '3', 'quality_hair': '3', 'quality_neck': '3', 'facial_hair': '2.0', 'notes': None, 'race_common': 'white', 'gender_common': 'man'}",,,,,,,,,,,,,,,,,,,,,,,,,,,,,,,,,,,,,,,,,,,,,,,,,,,,,,,,,
68,631bd9ea9cb434415f3c1399,8679.0,False,"['../stimuli/version1_gray_lm/id060_25R_U.png', '../stimuli/version1_gray_lm/id144_00C_C.png', '../stimuli/version1_gray_lm/id060_25L_D.png']",39,2.0,1.0,144,00C,C,black,woman,"[0, 2]",060,"['25R', '25L']","['U', 'D']",black,woman,0.7981672286987305,"[0.793040931224823, 0.8522788286209106]",encoding,41,251000,0.0-32.0,5f9e612e5e10814115cc780d,631bd3a3a9a29733dcc9b171,631bd8e68922ee016069e783,2.0,True,15.0,bvqww4r2dnwa1glf7o1f,"9/9/2022, 5:27:22 PM",Chrome,main_task_5,chris,prolific_afc5,,"{'muct_id': '214', 'lighting': 'u', 'race_guess': 'b', 'gender_guess': 'w', 'quality': '2', 'quality_eyes': '2', 'quality_mouth': '3', 'quality_ears': '3', 'quality_hair': '3', 'quality_neck': '3', 'facial_hair': '0.0', 'notes': None, 'race_common': 'black', 'gender_common': 'woman'}","{'muct_id': '88', 'lighting': 'q', 'race_guess': 'b', 'gender_guess': 'w', 'quality': '3', 'quality_eyes': '3', 'quality_mouth': '3', 'quality_ears': '3', 'quality_hair': '3', 'quality_neck': '3', 'facial_hair': '0.0', 'notes': 'earrings', 'race_common': 'black', 'gender_common': 'woman'}",,,,,,,,,,,,,,,,,,,,,,,,,,,,,,,,,,,,,,,,,,,,,,,,,,,,,,,,,
69,631bd9ec9cb434415f3c139a,2936.0,False,"['../stimuli/objectome/238.jpeg', '../stimuli/objectome/222.jpeg', '../stimuli/objectome/223.jpeg']",37,1.0,238.0,,,,,,,,,,,,,,filler,91,301093,0.0-86.0-0.0,627d0848837a688546a3dfbe,631bd3a3a9a29733dcc9b172,631bd8b23af53108328955a9,1.0,True,1.0,7svbnvvr79safymrys8b,"9/9/2022, 8:27:22 PM",Chrome,main_task_5,chris,prolific_afc5,,,,,,,chairs,_033,chairs,_033,within,"{'1': None, '2': None, '3': None}",chairs,"[222, 223]",_031,V0,,,,,,,,,,,,,,,,,,,,,,,,,,,,,,,,,,,,,,,,,,,,
70,631bd9ef9cb434415f3c139b,1809.0,False,"['../stimuli/objectome/2127.jpeg', '../stimuli/objectome/2141.jpeg', '../stimuli/objectome/905.jpeg']",40,3.0,905.0,,,,,,,,,,,,,,filler,93,304136,0.0-87.0-0.0,627d0848837a688546a3dfbe,631bd3a3a9a29733dcc9b172,631bd8b23af53108328955a9,3.0,True,2.0,7svbnvvr79safymrys8b,"9/9/2022, 8:27:25 PM",Chrome,main_task_5,chris,prolific_afc5,,,,,,,animals,ELEPHANT_M,animals,ELEPHANT_M,within,"{'1': None, '2': None, '3': None}",animals,"[2127, 2141]",blCow,V3,,,,,,,,,,,,,,,,,,,,,,,,,,,,,,,,,,,,,,,,,,,,
71,631bd9ef9cb434415f3c139c,3705.0,False,"['../stimuli/version1_gray_lm/id145_00C_U.png', '../stimuli/version1_gray_lm/id145_25L_C.png', '../stimuli/version1_gray_lm/id034_25R_D.png']",40,3.0,2.0,034,25R,D,white,man,"[0, 1]",145,"['00C', '25L']","['U', 'C']",white,man,0.8373665809631348,"[0.820552408695221, 0.8171766996383667]",encoding,13,312102,0.0-6.0,62ba9df7bf9e8e2ef0501f94,631bd3a3a9a29733dcc9b171,631bd871e902f7af77e5f6f3,3.0,True,2.0,ssovnp524s3w7qtwz87d,"9/9/2022, 7:27:20 PM",Chrome,main_task_5,chris,prolific_afc5,,"{'muct_id': '45', 'lighting': 'q', 'race_guess': 'w', 'gender_guess': 'm', 'quality': '3', 'quality_eyes': '3', 'quality_mouth': '3', 'quality_ears': '3', 'quality_hair': '3', 'quality_neck': '3', 'facial_hair': '0.0', 'notes': None, 'race_common': 'white', 'gender_common': 'man'}","{'muct_id': '230', 'lighting': 'u', 'race_guess': 'w', 'gender_guess': 'm', 'quality': '3', 'quality_eyes': '3', 'quality_mouth': '3', 'quality_ears': '3', 'quality_hair': '3', 'quality_neck': '3', 'facial_hair': '0.0', 'notes': 'hair', 'race_common': 'white', 'gender_common': 'man'}",,,,,,,,,,,,,,,,,,,,,,,,,,,,,,,,,,,,,,,,,,,,,,,,,,,,,,,,,
72,631bd9f19cb434415f3c139d,6701.0,False,"['../stimuli/version1_gray_lm/id065_25L_D.png', '../stimuli/version1_gray_lm/id001_25R_U.png', '../stimuli/version1_gray_lm/id001_00C_C.png']",37,1.0,0.0,065,25L,D,black,man,"[1, 2]",001,"['25R', '00C']","['U', 'C']",black,man,0.8453065156936646,"[0.7986511588096619, 0.8537633419036865]",encoding,43,258448,0.0-34.0,5f9e612e5e10814115cc780d,631bd3a3a9a29733dcc9b171,631bd8e68922ee016069e783,1.0,True,16.0,bvqww4r2dnwa1glf7o1f,"9/9/2022, 5:27:29 PM",Chrome,main_task_5,chris,prolific_afc5,,"{'muct_id': '206', 'lighting': 't', 'race_guess': 'b', 'gender_guess': 'm', 'quality': '3', 'quality_eyes': '3', 'quality_mouth': '3', 'quality_ears': '3', 'quality_hair': '3', 'quality_neck': '3', 'facial_hair': '1.0', 'notes': None, 'race_common': 'black', 'gender_common': 'man'}","{'muct_id': '1', 'lighting': 'q', 'race_guess': 'b', 'gender_guess': 'm', 'quality': '3', 'quality_eyes': '3', 'quality_mouth': '3', 'quality_ears': '3', 'quality_hair': '3', 'quality_neck': '3', 'facial_hair': '1.0', 'notes': None, 'race_common': 'black', 'gender_common': 'man'}",,,,,,,,,,,,,,,,,,,,,,,,,,,,,,,,,,,,,,,,,,,,,,,,,,,,,,,,,
73,631bd9f39cb434415f3c139e,3275.0,False,"['../stimuli/objectome/3031.jpeg', '../stimuli/objectome/1514.jpeg', '../stimuli/objectome/3003.jpeg']",39,2.0,1514.0,,,,,,,,,,,,,,filler,95,307976,0.0-88.0-0.0,627d0848837a688546a3dfbe,631bd3a3a9a29733dcc9b172,631bd8b23af53108328955a9,2.0,True,3.0,7svbnvvr79safymrys8b,"9/9/2022, 8:27:29 PM",Chrome,main_task_5,chris,prolific_afc5,,,,,,,planes,_01_Airliner_2jetEngines,planes,_01_Airliner_2jetEngines,within,"{'1': None, '2': None, '3': None}",planes,"[3031, 3003]",sopwith,V3,,,,,,,,,,,,,,,,,,,,,,,,,,,,,,,,,,,,,,,,,,,,
74,631bd9f49cb434415f3c139f,3916.0,False,"['../stimuli/version1_gray_lm/id139_00C_D.png', '../stimuli/version1_gray_lm/id122_25R_U.png', '../stimuli/version1_gray_lm/id139_25L_C.png']",39,2.0,1.0,122,25R,U,black,man,"[0, 2]",139,"['00C', '25L']","['D', 'C']",black,man,0.8036711812019348,"[0.8882145285606384, 0.8315029144287109]",encoding,15,317159,0.0-8.0,62ba9df7bf9e8e2ef0501f94,631bd3a3a9a29733dcc9b171,631bd871e902f7af77e5f6f3,2.0,True,3.0,ssovnp524s3w7qtwz87d,"9/9/2022, 7:27:25 PM",Chrome,main_task_5,chris,prolific_afc5,,"{'muct_id': '425', 'lighting': 'x', 'race_guess': 'b', 'gender_guess': 'm', 'quality': '3', 'quality_eyes': '3', 'quality_mouth': '3', 'quality_ears': '3', 'quality_hair': '3', 'quality_neck': '3', 'facial_hair': '2.0', 'notes': None, 'race_common': 'black', 'gender_common': 'man'}","{'muct_id': '623', 'lighting': 'y', 'race_guess': 'b', 'gender_guess': 'm', 'quality': '3', 'quality_eyes': '3', 'quality_mouth': '3', 'quality_ears': '3', 'quality_hair': '3', 'quality_neck': '3', 'facial_hair': '1.0', 'notes': 'mouth', 'race_common': 'black', 'gender_common': 'man'}",,,,,,,,,,,,,,,,,,,,,,,,,,,,,,,,,,,,,,,,,,,,,,,,,,,,,,,,,
75,631bd9f79cb434415f3c13a0,4717.0,False,"['../stimuli/version1_gray_lm/id016_00C_C.png', '../stimuli/version1_gray_lm/id019_25L_D.png', '../stimuli/version1_gray_lm/id019_25R_U.png']",37,1.0,0.0,016,00C,C,black,woman,"[1, 2]",019,"['25L', '25R']","['D', 'U']",black,woman,0.8335258364677429,"[0.8795315027236938, 0.7685174942016602]",encoding,45,263801,0.0-36.0,5f9e612e5e10814115cc780d,631bd3a3a9a29733dcc9b171,631bd8e68922ee016069e783,1.0,True,17.0,bvqww4r2dnwa1glf7o1f,"9/9/2022, 5:27:35 PM",Chrome,main_task_5,chris,prolific_afc5,,"{'muct_id': '18', 'lighting': 'q', 'race_guess': 'b', 'gender_guess': 'w', 'quality': '3', 'quality_eyes': '3', 'quality_mouth': '3', 'quality_ears': '3', 'quality_hair': '3', 'quality_neck': '3', 'facial_hair': '0.0', 'notes': 'earrings', 'race_common': 'black', 'gender_common': 'woman'}","{'muct_id': '23', 'lighting': 'q', 'race_guess': 'b', 'gender_guess': 'u', 'quality': '3', 'quality_eyes': '3', 'quality_mouth': '3', 'quality_ears': '3', 'quality_hair': '3', 'quality_neck': '3', 'facial_hair': '0.0', 'notes': None, 'race_common': 'black', 'gender_common': 'woman'}",,,,,,,,,,,,,,,,,,,,,,,,,,,,,,,,,,,,,,,,,,,,,,,,,,,,,,,,,
76,631bd9f89cb434415f3c13a1,2047.0,False,"['../stimuli/objectome/1430.jpeg', '../stimuli/objectome/1302.jpeg', '../stimuli/objectome/1284.jpeg']",37,1.0,1430.0,,,,,,,,,,,,,,filler,98,313405,0.0-90.0,627d0848837a688546a3dfbe,631bd3a3a9a29733dcc9b172,631bd8b23af53108328955a9,1.0,True,4.0,7svbnvvr79safymrys8b,"9/9/2022, 8:27:34 PM",Chrome,main_task_5,chris,prolific_afc5,,,,,,,chairs,_011,chairs,_011,within,"{'1': None, '2': None, '3': None}",chairs,"[1302, 1284]",_004,V3,,,,,,,,,,,,,,,,,,,,,,,,,,,,,,,,,,,,,,,,,,,,
77,631bd9fa9cb434415f3c13a2,3103.0,False,"['../stimuli/version1_gray_lm/id047_25L_U.png', '../stimuli/version1_gray_lm/id047_00C_C.png', '../stimuli/version1_gray_lm/id156_25R_D.png']",40,3.0,2.0,156,25R,D,white,man,"[0, 1]",047,"['25L', '00C']","['U', 'C']",white,man,0.8221330046653748,"[0.8087530136108398, 0.8842638731002808]",encoding,47,267567,0.0-38.0,5f9e612e5e10814115cc780d,631bd3a3a9a29733dcc9b171,631bd8e68922ee016069e783,3.0,True,18.0,bvqww4r2dnwa1glf7o1f,"9/9/2022, 5:27:38 PM",Chrome,main_task_5,chris,prolific_afc5,,"{'muct_id': '258', 'lighting': 'u', 'race_guess': 'w', 'gender_guess': 'm', 'quality': '2', 'quality_eyes': '3', 'quality_mouth': '3', 'quality_ears': '3', 'quality_hair': '2', 'quality_neck': '3', 'facial_hair': '0.0', 'notes': 'hair', 'race_common': 'white', 'gender_common': 'man'}","{'muct_id': '64', 'lighting': 'q', 'race_guess': 'w', 'gender_guess': 'm', 'quality': '3', 'quality_eyes': '3', 'quality_mouth': '3', 'quality_ears': '3', 'quality_hair': '3', 'quality_neck': '3', 'facial_hair': '0.0', 'notes': None, 'race_common': 'white', 'gender_common': 'man'}",,,,,,,,,,,,,,,,,,,,,,,,,,,,,,,,,,,,,,,,,,,,,,,,,,,,,,,,,
78,631bd9fb9cb434415f3c13a3,2098.0,False,"['../stimuli/objectome/914.jpeg', '../stimuli/objectome/908.jpeg', '../stimuli/objectome/947.jpeg']",40,3.0,947.0,,,,,,,,,,,,,,filler,100,316090,0.0-92.0,627d0848837a688546a3dfbe,631bd3a3a9a29733dcc9b172,631bd8b23af53108328955a9,3.0,True,5.0,7svbnvvr79safymrys8b,"9/9/2022, 8:27:37 PM",Chrome,main_task_5,chris,prolific_afc5,,,,,,,animals,GORILLA,animals,GORILLA,within,"{'1': None, '2': None, '3': None}",animals,"[914, 908]",ELEPHANT_M,V3,,,,,,,,,,,,,,,,,,,,,,,,,,,,,,,,,,,,,,,,,,,,
79,631bd9fd9cb434415f3c13a4,7183.0,False,"['../stimuli/version1_gray_lm/id035_25R_D.png', '../stimuli/version1_gray_lm/id126_00C_C.png', '../stimuli/version1_gray_lm/id035_25L_U.png']",39,2.0,1.0,126,00C,C,black,woman,"[0, 2]",035,"['25R', '25L']","['D', 'U']",black,woman,0.7969012260437012,"[0.8423609733581543, 0.7532981634140015]",encoding,17,325488,0.0-10.0,62ba9df7bf9e8e2ef0501f94,631bd3a3a9a29733dcc9b171,631bd871e902f7af77e5f6f3,2.0,True,4.0,ssovnp524s3w7qtwz87d,"9/9/2022, 7:27:34 PM",Chrome,main_task_5,chris,prolific_afc5,,"{'muct_id': '434', 'lighting': 'w', 'race_guess': 'b', 'gender_guess': 'w', 'quality': '3', 'quality_eyes': '3', 'quality_mouth': '3', 'quality_ears': '3', 'quality_hair': '3', 'quality_neck': '3', 'facial_hair': '0.0', 'notes': 'earrings', 'race_common': 'black', 'gender_common': 'woman'}","{'muct_id': '46', 'lighting': 'q', 'race_guess': 'b', 'gender_guess': 'w', 'quality': '3', 'quality_eyes': '3', 'quality_mouth': '3', 'quality_ears': '3', 'quality_hair': '3', 'quality_neck': '3', 'facial_hair': '0.0', 'notes': 'earrings', 'race_common': 'black', 'gender_common': 'woman'}",,,,,,,,,,,,,,,,,,,,,,,,,,,,,,,,,,,,,,,,,,,,,,,,,,,,,,,,,
80,631bd9fe9cb434415f3c13a5,3090.0,False,"['../stimuli/objectome/972.jpeg', '../stimuli/objectome/998.jpeg', '../stimuli/objectome/957.jpeg']",40,3.0,957.0,,,,,,,,,,,,,,filler,102,319575,0.0-94.0,627d0848837a688546a3dfbe,631bd3a3a9a29733dcc9b172,631bd8b23af53108328955a9,3.0,True,6.0,7svbnvvr79safymrys8b,"9/9/2022, 8:27:40 PM",Chrome,main_task_5,chris,prolific_afc5,,,,,,,animals,GORILLA,animals,GORILLA,within,"{'1': None, '2': None, '3': None}",animals,"[972, 998]",LIONESS,V3,,,,,,,,,,,,,,,,,,,,,,,,,,,,,,,,,,,,,,,,,,,,
81,631bda019cb434415f3c13a6,1963.0,False,"['../stimuli/objectome/1319.jpeg', '../stimuli/objectome/1309.jpeg', '../stimuli/objectome/1375.jpeg']",40,3.0,1375.0,,,,,,,,,,,,,,filler,104,322051,0.0-96.0,627d0848837a688546a3dfbe,631bd3a3a9a29733dcc9b172,631bd8b23af53108328955a9,3.0,True,7.0,7svbnvvr79safymrys8b,"9/9/2022, 8:27:43 PM",Chrome,main_task_5,chris,prolific_afc5,,,,,,,chairs,_010,chairs,_010,within,"{'1': None, '2': None, '3': None}",chairs,"[1319, 1309]",_004,V3,,,,,,,,,,,,,,,,,,,,,,,,,,,,,,,,,,,,,,,,,,,,
82,631bda029cb434415f3c13a7,6798.0,False,"['../stimuli/version1_gray_lm/id044_25L_U.png', '../stimuli/version1_gray_lm/id061_00C_C.png', '../stimuli/version1_gray_lm/id044_25R_D.png']",39,2.0,1.0,061,00C,C,white,man,"[0, 2]",044,"['25L', '25R']","['U', 'D']",white,man,0.8612361550331116,"[0.8178898692131042, 0.8095013499259949]",encoding,49,274953,0.0-40.0,5f9e612e5e10814115cc780d,631bd3a3a9a29733dcc9b171,631bd8e68922ee016069e783,2.0,True,19.0,bvqww4r2dnwa1glf7o1f,"9/9/2022, 5:27:46 PM",Chrome,main_task_5,chris,prolific_afc5,,"{'muct_id': '89', 'lighting': 'r', 'race_guess': 'w', 'gender_guess': 'm', 'quality': '3', 'quality_eyes': '3', 'quality_mouth': '3', 'quality_ears': '3', 'quality_hair': '3', 'quality_neck': '3', 'facial_hair': '2.0', 'notes': None, 'race_common': 'white', 'gender_common': 'man'}","{'muct_id': '60', 'lighting': 's', 'race_guess': 'u', 'gender_guess': 'm', 'quality': '3', 'quality_eyes': '3', 'quality_mouth': '3', 'quality_ears': '3', 'quality_hair': '3', 'quality_neck': '3', 'facial_hair': '2.0', 'notes': None, 'race_common': 'white', 'gender_common': 'man'}",,,,,,,,,,,,,,,,,,,,,,,,,,,,,,,,,,,,,,,,,,,,,,,,,,,,,,,,,
83,631bda039cb434415f3c13a8,5362.0,False,"['../stimuli/version1_gray_lm/id113_25R_D.png', '../stimuli/version1_gray_lm/id105_00C_C.png', '../stimuli/version1_gray_lm/id113_25L_U.png']",39,2.0,1.0,105,00C,C,black,man,"[0, 2]",113,"['25R', '25L']","['D', 'U']",black,man,0.8415019512176514,"[0.810193657875061, 0.7881785035133362]",encoding,19,332079,0.0-12.0,62ba9df7bf9e8e2ef0501f94,631bd3a3a9a29733dcc9b171,631bd871e902f7af77e5f6f3,2.0,True,5.0,ssovnp524s3w7qtwz87d,"9/9/2022, 7:27:40 PM",Chrome,main_task_5,chris,prolific_afc5,,"{'muct_id': '290', 'lighting': 't', 'race_guess': 'b', 'gender_guess': 'm', 'quality': '3', 'quality_eyes': '3', 'quality_mouth': '3', 'quality_ears': '3', 'quality_hair': '3', 'quality_neck': '3', 'facial_hair': '2.0', 'notes': None, 'race_common': 'black', 'gender_common': 'man'}","{'muct_id': '407', 'lighting': 'x', 'race_guess': 'u', 'gender_guess': 'm', 'quality': '3', 'quality_eyes': '3', 'quality_mouth': '3', 'quality_ears': '3', 'quality_hair': '3', 'quality_neck': '3', 'facial_hair': '3.0', 'notes': 'beard', 'race_common': 'black', 'gender_common': 'man'}",,,,,,,,,,,,,,,,,,,,,,,,,,,,,,,,,,,,,,,,,,,,,,,,,,,,,,,,,
84,631bda039cb434415f3c13a9,1795.0,False,"['../stimuli/objectome/2799.jpeg', '../stimuli/objectome/2779.jpeg', '../stimuli/objectome/936.jpeg']",40,3.0,936.0,,,,,,,,,,,,,,filler,106,324383,0.0-98.0,627d0848837a688546a3dfbe,631bd3a3a9a29733dcc9b172,631bd8b23af53108328955a9,3.0,True,8.0,7svbnvvr79safymrys8b,"9/9/2022, 8:27:45 PM",Chrome,main_task_5,chris,prolific_afc5,,,,,,,animals,GORILLA,animals,GORILLA,within,"{'1': None, '2': None, '3': None}",animals,"[2799, 2779]",hedgehog,V3,,,,,,,,,,,,,,,,,,,,,,,,,,,,,,,,,,,,,,,,,,,,
85,631bda069cb434415f3c13aa,2534.0,False,"['../stimuli/objectome/1845.jpeg', '../stimuli/objectome/2999.jpeg', '../stimuli/objectome/2991.jpeg']",37,1.0,1845.0,,,,,,,,,,,,,,filler,108,327399,0.0-100.0,627d0848837a688546a3dfbe,631bd3a3a9a29733dcc9b172,631bd8b23af53108328955a9,1.0,True,9.0,7svbnvvr79safymrys8b,"9/9/2022, 8:27:48 PM",Chrome,main_task_5,chris,prolific_afc5,,,,,,,planes,_19_flyingBoat,planes,_19_flyingBoat,within,"{'1': None, '2': None, '3': None}",planes,"[2999, 2991]",rdbarren,V3,,,,,,,,,,,,,,,,,,,,,,,,,,,,,,,,,,,,,,,,,,,,
86,631bda079cb434415f3c13ab,4429.0,False,"['../stimuli/version1_gray_lm/id064_25L_U.png', '../stimuli/version1_gray_lm/id056_25R_C.png', '../stimuli/version1_gray_lm/id056_00C_D.png']",37,1.0,0.0,064,25L,U,black,man,"[1, 2]",056,"['25R', '00C']","['C', 'D']",black,man,0.8070446848869324,"[0.794366717338562, 0.8718909025192261]",encoding,51,279952,0.0-42.0,5f9e612e5e10814115cc780d,631bd3a3a9a29733dcc9b171,631bd8e68922ee016069e783,1.0,True,20.0,bvqww4r2dnwa1glf7o1f,"9/9/2022, 5:27:51 PM",Chrome,main_task_5,chris,prolific_afc5,,"{'muct_id': '204', 'lighting': 't', 'race_guess': 'b', 'gender_guess': 'm', 'quality': '3', 'quality_eyes': '3', 'quality_mouth': '3', 'quality_ears': '3', 'quality_hair': '3', 'quality_neck': '3', 'facial_hair': '1.0', 'notes': None, 'race_common': 'black', 'gender_common': 'man'}","{'muct_id': '82', 'lighting': 'q', 'race_guess': 'b', 'gender_guess': 'm', 'quality': '3', 'quality_eyes': '3', 'quality_mouth': '3', 'quality_ears': '3', 'quality_hair': '3', 'quality_neck': '3', 'facial_hair': '1.0', 'notes': None, 'race_common': 'black', 'gender_common': 'man'}",,,,,,,,,,,,,,,,,,,,,,,,,,,,,,,,,,,,,,,,,,,,,,,,,,,,,,,,,
87,631bda099cb434415f3c13ac,2437.0,False,"['../stimuli/objectome/1316.jpeg', '../stimuli/objectome/1274.jpeg', '../stimuli/objectome/1264.jpeg']",37,1.0,1316.0,,,,,,,,,,,,,,filler,110,330281,0.0-102.0,627d0848837a688546a3dfbe,631bd3a3a9a29733dcc9b172,631bd8b23af53108328955a9,1.0,True,10.0,7svbnvvr79safymrys8b,"9/9/2022, 8:27:51 PM",Chrome,main_task_5,chris,prolific_afc5,,,,,,,chairs,_004,chairs,_004,within,"{'1': None, '2': None, '3': None}",chairs,"[1274, 1264]",_001,V3,,,,,,,,,,,,,,,,,,,,,,,,,,,,,,,,,,,,,,,,,,,,
88,631bda0b9cb434415f3c13ad,3588.0,False,"['../stimuli/version1_gray_lm/id090_25L_D.png', '../stimuli/version1_gray_lm/id090_25R_U.png', '../stimuli/version1_gray_lm/id122_00C_C.png']",40,3.0,2.0,122,00C,C,black,man,"[0, 1]",090,"['25L', '25R']","['D', 'U']",black,man,0.8103669285774231,"[0.8555980324745178, 0.7921282649040222]",encoding,53,284097,0.0-44.0,5f9e612e5e10814115cc780d,631bd3a3a9a29733dcc9b171,631bd8e68922ee016069e783,3.0,True,21.0,bvqww4r2dnwa1glf7o1f,"9/9/2022, 5:27:55 PM",Chrome,main_task_5,chris,prolific_afc5,,"{'muct_id': '425', 'lighting': 'x', 'race_guess': 'b', 'gender_guess': 'm', 'quality': '3', 'quality_eyes': '3', 'quality_mouth': '3', 'quality_ears': '3', 'quality_hair': '3', 'quality_neck': '3', 'facial_hair': '2.0', 'notes': None, 'race_common': 'black', 'gender_common': 'man'}","{'muct_id': '259', 'lighting': 'v', 'race_guess': 'b', 'gender_guess': 'm', 'quality': '3', 'quality_eyes': '3', 'quality_mouth': '3', 'quality_ears': '3', 'quality_hair': '3', 'quality_neck': '3', 'facial_hair': '2.0', 'notes': None, 'race_common': 'black', 'gender_common': 'man'}",,,,,,,,,,,,,,,,,,,,,,,,,,,,,,,,,,,,,,,,,,,,,,,,,,,,,,,,,
89,631bda0c9cb434415f3c13ae,7518.0,False,"['../stimuli/version1_gray_lm/id116_25L_U.png', '../stimuli/version1_gray_lm/id092_00C_C.png', '../stimuli/version1_gray_lm/id092_25R_D.png']",37,1.0,0.0,116,25L,U,white,man,"[1, 2]",092,"['00C', '25R']","['C', 'D']",white,man,0.8065091371536255,"[0.8726173043251038, 0.7873934507369995]",encoding,21,340746,0.0-14.0,62ba9df7bf9e8e2ef0501f94,631bd3a3a9a29733dcc9b171,631bd871e902f7af77e5f6f3,1.0,True,6.0,ssovnp524s3w7qtwz87d,"9/9/2022, 7:27:49 PM",Chrome,main_task_5,chris,prolific_afc5,,"{'muct_id': '414', 'lighting': 'w', 'race_guess': 'w', 'gender_guess': 'm', 'quality': '3', 'quality_eyes': '3', 'quality_mouth': '3', 'quality_ears': '3', 'quality_hair': '3', 'quality_neck': '3', 'facial_hair': '0.0', 'notes': None, 'race_common': 'white', 'gender_common': 'man'}","{'muct_id': '261', 'lighting': 'v', 'race_guess': 'w', 'gender_guess': 'm', 'quality': '2', 'quality_eyes': '2', 'quality_mouth': '3', 'quality_ears': '3', 'quality_hair': '3', 'quality_neck': '3', 'facial_hair': '0.0', 'notes': None, 'race_common': 'white', 'gender_common': 'man'}",,,,,,,,,,,,,,,,,,,,,,,,,,,,,,,,,,,,,,,,,,,,,,,,,,,,,,,,,
90,631bda0c9cb434415f3c13af,2336.0,False,"['../stimuli/objectome/3015.jpeg', '../stimuli/objectome/1621.jpeg', '../stimuli/objectome/1603.jpeg']",37,1.0,3015.0,,,,,,,,,,,,,,filler,112,333045,0.0-104.0,627d0848837a688546a3dfbe,631bd3a3a9a29733dcc9b172,631bd8b23af53108328955a9,1.0,True,11.0,7svbnvvr79safymrys8b,"9/9/2022, 8:27:54 PM",Chrome,main_task_5,chris,prolific_afc5,,,,,,,planes,sopwith,planes,sopwith,within,"{'1': None, '2': None, '3': None}",planes,"[1621, 1603]",_05_future,V3,,,,,,,,,,,,,,,,,,,,,,,,,,,,,,,,,,,,,,,,,,,,
91,631bda0e9cb434415f3c13b0,2633.0,False,"['../stimuli/version1_gray_lm/id155_25L_C.png', '../stimuli/version1_gray_lm/id155_00C_D.png', '../stimuli/version1_gray_lm/id084_25R_U.png']",39,3.0,2.0,084,25R,U,white,woman,"[0, 1]",155,"['25L', '00C']","['C', 'D']",white,woman,0.8210078477859497,"[0.8449140191078186, 0.8587322235107422]",encoding,55,287258,0.0-46.0,5f9e612e5e10814115cc780d,631bd3a3a9a29733dcc9b171,631bd8e68922ee016069e783,2.0,False,22.0,bvqww4r2dnwa1glf7o1f,"9/9/2022, 5:27:58 PM",Chrome,main_task_5,chris,prolific_afc5,,"{'muct_id': '248', 'lighting': 'u', 'race_guess': 'w', 'gender_guess': 'w', 'quality': '3', 'quality_eyes': '3', 'quality_mouth': '3', 'quality_ears': '3', 'quality_hair': '3', 'quality_neck': '3', 'facial_hair': '0.0', 'notes': None, 'race_common': 'white', 'gender_common': 'woman'}","{'muct_id': '615', 'lighting': 'z', 'race_guess': 'w', 'gender_guess': 'w', 'quality': '3', 'quality_eyes': '3', 'quality_mouth': '3', 'quality_ears': '3', 'quality_hair': '3', 'quality_neck': '3', 'facial_hair': '0.0', 'notes': 'earrings', 'race_common': 'white', 'gender_common': 'woman'}",,,,,,,,,,,,,,,,,,,,,,,,,,,,,,,,,,,,,,,,,,,,,,,,,,,,,,,,,
92,631bda0e9cb434415f3c13b1,2047.0,False,"['../stimuli/objectome/2999.jpeg', '../stimuli/objectome/1503.jpeg', '../stimuli/objectome/1481.jpeg']",37,1.0,2999.0,,,,,,,,,,,,,,filler,114,335655,0.0-106.0,627d0848837a688546a3dfbe,631bd3a3a9a29733dcc9b172,631bd8b23af53108328955a9,1.0,True,12.0,7svbnvvr79safymrys8b,"9/9/2022, 8:27:57 PM",Chrome,main_task_5,chris,prolific_afc5,,,,,,,planes,rdbarren,planes,rdbarren,within,"{'1': None, '2': None, '3': None}",planes,"[1503, 1481]",_01_Airliner_2jetEngines,V3,,,,,,,,,,,,,,,,,,,,,,,,,,,,,,,,,,,,,,,,,,,,
93,631bda119cb434415f3c13b2,4133.0,False,"['../stimuli/version1_gray_lm/id056_25L_U.png', '../stimuli/version1_gray_lm/id040_00C_D.png', '../stimuli/version1_gray_lm/id040_25R_C.png']",37,1.0,0.0,056,25L,U,black,man,"[1, 2]",040,"['00C', '25R']","['D', 'C']",black,man,0.7848536968231201,"[0.8633358478546143, 0.7993077635765076]",encoding,23,346220,0.0-16.0,62ba9df7bf9e8e2ef0501f94,631bd3a3a9a29733dcc9b171,631bd871e902f7af77e5f6f3,1.0,True,7.0,ssovnp524s3w7qtwz87d,"9/9/2022, 7:27:54 PM",Chrome,main_task_5,chris,prolific_afc5,,"{'muct_id': '82', 'lighting': 'q', 'race_guess': 'b', 'gender_guess': 'm', 'quality': '3', 'quality_eyes': '3', 'quality_mouth': '3', 'quality_ears': '3', 'quality_hair': '3', 'quality_neck': '3', 'facial_hair': '1.0', 'notes': None, 'race_common': 'black', 'gender_common': 'man'}","{'muct_id': '55', 'lighting': 'r', 'race_guess': 'b', 'gender_guess': 'm', 'quality': '3', 'quality_eyes': '3', 'quality_mouth': '3', 'quality_ears': '3', 'quality_hair': '3', 'quality_neck': '3', 'facial_hair': '3.0', 'notes': 'beard', 'race_common': 'black', 'gender_common': 'man'}",,,,,,,,,,,,,,,,,,,,,,,,,,,,,,,,,,,,,,,,,,,,,,,,,,,,,,,,,
94,631bda119cb434415f3c13b3,2306.0,False,"['../stimuli/objectome/2086.jpeg', '../stimuli/objectome/913.jpeg', '../stimuli/objectome/2109.jpeg']",39,2.0,913.0,,,,,,,,,,,,,,filler,116,338492,0.0-108.0,627d0848837a688546a3dfbe,631bd3a3a9a29733dcc9b172,631bd8b23af53108328955a9,2.0,True,13.0,7svbnvvr79safymrys8b,"9/9/2022, 8:27:59 PM",Chrome,main_task_5,chris,prolific_afc5,,,,,,,animals,ELEPHANT_M,animals,ELEPHANT_M,within,"{'1': None, '2': None, '3': None}",animals,"[2086, 2109]",bear,V3,,,,,,,,,,,,,,,,,,,,,,,,,,,,,,,,,,,,,,,,,,,,
95,631bda149cb434415f3c13b4,1771.0,False,"['../stimuli/objectome/1267.jpeg', '../stimuli/objectome/1432.jpeg', '../stimuli/objectome/1274.jpeg']",39,2.0,1432.0,,,,,,,,,,,,,,filler,118,340910,0.0-110.0,627d0848837a688546a3dfbe,631bd3a3a9a29733dcc9b172,631bd8b23af53108328955a9,2.0,True,14.0,7svbnvvr79safymrys8b,"9/9/2022, 8:28:02 PM",Chrome,main_task_5,chris,prolific_afc5,,,,,,,chairs,_011,chairs,_011,within,"{'1': None, '2': None, '3': None}",chairs,"[1267, 1274]",_001,V3,,,,,,,,,,,,,,,,,,,,,,,,,,,,,,,,,,,,,,,,,,,,
96,631bda169cb434415f3c13b5,6837.0,False,"['../stimuli/version1_gray_lm/id117_25L_D.png', '../stimuli/version1_gray_lm/id121_00C_C.png', '../stimuli/version1_gray_lm/id117_25R_U.png']",39,2.0,1.0,121,00C,C,black,man,"[0, 2]",117,"['25L', '25R']","['D', 'U']",black,man,0.8360601663589478,"[0.8990145921707153, 0.8318807482719421]",encoding,57,294649,0.0-48.0,5f9e612e5e10814115cc780d,631bd3a3a9a29733dcc9b171,631bd8e68922ee016069e783,2.0,True,23.0,bvqww4r2dnwa1glf7o1f,"9/9/2022, 5:28:06 PM",Chrome,main_task_5,chris,prolific_afc5,,"{'muct_id': '423', 'lighting': 'w', 'race_guess': 'b', 'gender_guess': 'm', 'quality': '3', 'quality_eyes': '3', 'quality_mouth': '3', 'quality_ears': '3', 'quality_hair': '3', 'quality_neck': '3', 'facial_hair': '1.0', 'notes': None, 'race_common': 'black', 'gender_common': 'man'}","{'muct_id': '417', 'lighting': 'w', 'race_guess': 'b', 'gender_guess': 'm', 'quality': '3', 'quality_eyes': '3', 'quality_mouth': '3', 'quality_ears': '3', 'quality_hair': '3', 'quality_neck': '3', 'facial_hair': '1.0', 'notes': 'mouth', 'race_common': 'black', 'gender_common': 'man'}",,,,,,,,,,,,,,,,,,,,,,,,,,,,,,,,,,,,,,,,,,,,,,,,,,,,,,,,,
97,631bda189cb434415f3c13b6,1893.0,False,"['../stimuli/version1_gray_lm/id149_00C_C.png', '../stimuli/version1_gray_lm/id143_25R_D.png', '../stimuli/version1_gray_lm/id143_25L_U.png']",37,1.0,0.0,149,00C,C,white,man,"[1, 2]",143,"['25R', '25L']","['D', 'U']",white,man,0.7883397340774536,"[0.8489516973495483, 0.8404833674430847]",encoding,59,297033,0.0-50.0,5f9e612e5e10814115cc780d,631bd3a3a9a29733dcc9b171,631bd8e68922ee016069e783,1.0,True,24.0,bvqww4r2dnwa1glf7o1f,"9/9/2022, 5:28:08 PM",Chrome,main_task_5,chris,prolific_afc5,,"{'muct_id': '416', 'lighting': 'w', 'race_guess': 'w', 'gender_guess': 'm', 'quality': '3', 'quality_eyes': '3', 'quality_mouth': '3', 'quality_ears': '3', 'quality_hair': '3', 'quality_neck': '3', 'facial_hair': '2.0', 'notes': None, 'race_common': 'white', 'gender_common': 'man'}","{'muct_id': '90', 'lighting': 'q', 'race_guess': 'u', 'gender_guess': 'm', 'quality': '2', 'quality_eyes': '3', 'quality_mouth': '3', 'quality_ears': '2', 'quality_hair': '3', 'quality_neck': '3', 'facial_hair': '4.0', 'notes': 'beard', 'race_common': 'white', 'gender_common': 'man'}",,,,,,,,,,,,,,,,,,,,,,,,,,,,,,,,,,,,,,,,,,,,,,,,,,,,,,,,,
98,631bda199cb434415f3c13b7,4482.0,False,"['../stimuli/objectome/1263.jpeg', '../stimuli/objectome/1593.jpeg', '../stimuli/objectome/1278.jpeg']",39,2.0,1593.0,,,,,,,,,,,,,,filler,120,345875,0.0-112.0,627d0848837a688546a3dfbe,631bd3a3a9a29733dcc9b172,631bd8b23af53108328955a9,2.0,True,15.0,7svbnvvr79safymrys8b,"9/9/2022, 8:28:07 PM",Chrome,main_task_5,chris,prolific_afc5,,,,,,,chairs,_033,chairs,_033,within,"{'1': None, '2': None, '3': None}",chairs,"[1263, 1278]",_001,V3,,,,,,,,,,,,,,,,,,,,,,,,,,,,,,,,,,,,,,,,,,,,
