,_id,rt,timed_out,stimulus,key_press,correct_response,oddity_index,oddity_identity,oddity_tiltLR,oddity_tiltUD,oddity_race,oddity_gender,typicals_indices,typicals_identity,typicals_tiltsLR,typicals_tiltsUD,typicals_race,typicals_gender,oddity_mb,typicals_mb,trial_type,trial_index,time_elapsed,internal_node_id,subject_id,study_id,session_id,choice,correct,trial_number,experiment_id,datetime,browser,collection,database,iteration,practice_threshold_met,oddity_meta,typicals_meta,button_pressed,last_trial_type,prediction,choice_category,choice_object,oddity_category,oddity_name,oddity_type,stimulus_response_map,typical_category,typical_indices,typical_name,variation_level,meta_new,meta_old,new_gender,new_identity,new_index,new_mb,new_race,new_tiltLR,new_tiltUD,old_encoding_pair,old_encoding_type,old_gender,old_identity,old_index,old_mb,old_original_index,old_original_tiltLR,old_original_tiltUD,old_race,old_tiltLR,old_tiltUD,response,slider_start,stimuli,tilt_change,tilt_difference,encoding_accuracy,encoding_avg_rt,encoding_n_trials,experimental_duration,filler_accuracy,filler_avg_rt,filler_n_trials,params,retrieval_accuracy,retrieval_avg_rt,retrieval_n_trials,total_bonus,total_payment,age,gender,gender_other,latinx,race
1058,632236ce9cb434415f3c1777,1546,False,"['../stimuli/version1_gray_lm/id008_00C_C.png', '../stimuli/version1_gray_lm/id008_25R_D.png', '../stimuli/version1_gray_lm/id026_25L_U.png']",arrowdown,3.0,2.0,026,25L,U,latinx,man,"[0, 1]",008,"['00C', '25R']","['C', 'D']",latinx,man,0.8264468908309937,"[0.8470383882522583, 0.817969024181366]",encoding_practice,3,67207,0.0-3.0-0.0,60fc3be8b7778559e151b9dc,632233549dc26661ffa446b5,63223683b3ebcc98e45e424d,3.0,True,1.0,bekm0cy9xqoaj3vlle58,"9/14/2022, 3:17:35 PM",Chrome,main_task_5,chris,prolific_afc4,,,,,,,,,,,,,,,,,,,,,,,,,,,,,,,,,,,,,,,,,,,,,,,,,,,,,,,,,,,,
1059,632236d29cb434415f3c1778,2200,False,"['../stimuli/version1_gray_lm/id026_25L_D.png', '../stimuli/version1_gray_lm/id062_00C_U.png', '../stimuli/version1_gray_lm/id026_25R_C.png']",arrowright,2.0,1.0,062,00C,U,latinx,woman,"[0, 2]",026,"['25L', '25R']","['D', 'C']",latinx,man,0.857087254524231,"[0.8459367156028748, 0.7719613313674927]",encoding_practice,5,71772,0.0-4.0-0.0,60fc3be8b7778559e151b9dc,632233549dc26661ffa446b5,63223683b3ebcc98e45e424d,2.0,True,2.0,bekm0cy9xqoaj3vlle58,"9/14/2022, 3:17:40 PM",Chrome,main_task_5,chris,prolific_afc4,,,,,,,,,,,,,,,,,,,,,,,,,,,,,,,,,,,,,,,,,,,,,,,,,,,,,,,,,,,,
1060,632236d69cb434415f3c1779,2833,False,"['../stimuli/version1_gray_lm/id008_00C_D.png', '../stimuli/version1_gray_lm/id026_25L_U.png', '../stimuli/version1_gray_lm/id008_25R_C.png']",arrowright,2.0,1.0,026,25L,U,latinx,man,"[0, 2]",008,"['00C', '25R']","['D', 'C']",latinx,man,0.8264468908309937,"[0.8663918972015381, 0.8297610878944397]",encoding_practice,7,75590,0.0-5.0-0.0,60fc3be8b7778559e151b9dc,632233549dc26661ffa446b5,63223683b3ebcc98e45e424d,2.0,True,3.0,bekm0cy9xqoaj3vlle58,"9/14/2022, 3:17:43 PM",Chrome,main_task_5,chris,prolific_afc4,True,,,,,,,,,,,,,,,,,,,,,,,,,,,,,,,,,,,,,,,,,,,,,,,,,,,,,,,,,,,
1061,632236dd9cb434415f3c177a,1656,False,"['../stimuli/version1_gray_lm/id120_25R_D.png', '../stimuli/version1_gray_lm/id120_00C_C.png', '../stimuli/version1_gray_lm/id069_25L_U.png']",arrowdown,3.0,2.0,069,25L,U,black,woman,"[0, 1]",120,"['25R', '00C']","['D', 'C']",black,woman,0.8012693524360657,"[0.8439685702323914, 0.8542997241020203]",encoding,10,82725,0.0-7.0,60fc3be8b7778559e151b9dc,632233549dc26661ffa446b5,63223683b3ebcc98e45e424d,3.0,True,1.0,bekm0cy9xqoaj3vlle58,"9/14/2022, 3:17:51 PM",Chrome,main_task_5,chris,prolific_afc4,,"{'muct_id': '218', 'lighting': 't', 'race_guess': 'b', 'gender_guess': 'w', 'quality': '3', 'quality_eyes': '3', 'quality_mouth': '3', 'quality_ears': '3', 'quality_hair': '3', 'quality_neck': '3', 'facial_hair': '0.0', 'notes': None, 'race_common': 'black', 'gender_common': 'woman'}","{'muct_id': '421', 'lighting': 'x', 'race_guess': 'b', 'gender_guess': 'w', 'quality': '3', 'quality_eyes': '3', 'quality_mouth': '3', 'quality_ears': '3', 'quality_hair': '3', 'quality_neck': '3', 'facial_hair': '0.0', 'notes': None, 'race_common': 'black', 'gender_common': 'woman'}",,,,,,,,,,,,,,,,,,,,,,,,,,,,,,,,,,,,,,,,,,,,,,,,,,,,,,,,,
1062,632236e19cb434415f3c177b,2622,False,"['../stimuli/version1_gray_lm/id114_25L_C.png', '../stimuli/version1_gray_lm/id003_00C_U.png', '../stimuli/version1_gray_lm/id003_25R_D.png']",arrowright,1.0,0.0,114,25L,C,white,woman,"[1, 2]",003,"['00C', '25R']","['U', 'D']",white,woman,0.8468145728111267,"[0.8513391613960266, 0.7958997488021851]",encoding,12,86707,0.0-9.0,60fc3be8b7778559e151b9dc,632233549dc26661ffa446b5,63223683b3ebcc98e45e424d,2.0,False,2.0,bekm0cy9xqoaj3vlle58,"9/14/2022, 3:17:55 PM",Chrome,main_task_5,chris,prolific_afc4,,"{'muct_id': '410', 'lighting': 'w', 'race_guess': 'w', 'gender_guess': 'w', 'quality': '3', 'quality_eyes': '3', 'quality_mouth': '3', 'quality_ears': '3', 'quality_hair': '3', 'quality_neck': '3', 'facial_hair': '0.0', 'notes': 'makeup mouth', 'race_common': 'white', 'gender_common': 'woman'}","{'muct_id': '3', 'lighting': 's', 'race_guess': 'i', 'gender_guess': 'w', 'quality': '2', 'quality_eyes': '3', 'quality_mouth': '3', 'quality_ears': '3', 'quality_hair': '2', 'quality_neck': '3', 'facial_hair': '0.0', 'notes': 'hair', 'race_common': 'white', 'gender_common': 'woman'}",,,,,,,,,,,,,,,,,,,,,,,,,,,,,,,,,,,,,,,,,,,,,,,,,,,,,,,,,
1063,632236e49cb434415f3c177c,1911,False,"['../stimuli/version1_gray_lm/id145_25L_C.png', '../stimuli/version1_gray_lm/id145_25R_U.png', '../stimuli/version1_gray_lm/id037_00C_D.png']",arrowdown,3.0,2.0,037,00C,D,white,man,"[0, 1]",145,"['25L', '25R']","['C', 'U']",white,man,0.9061680436134338,"[0.8171766996383667, 0.8221412301063538]",encoding,14,89465,0.0-11.0,60fc3be8b7778559e151b9dc,632233549dc26661ffa446b5,63223683b3ebcc98e45e424d,3.0,True,3.0,bekm0cy9xqoaj3vlle58,"9/14/2022, 3:17:57 PM",Chrome,main_task_5,chris,prolific_afc4,,"{'muct_id': '48', 'lighting': 'w', 'race_guess': 'w', 'gender_guess': 'm', 'quality': '3', 'quality_eyes': '3', 'quality_mouth': '3', 'quality_ears': '3', 'quality_hair': '3', 'quality_neck': '3', 'facial_hair': '0.0', 'notes': None, 'race_common': 'white', 'gender_common': 'man'}","{'muct_id': '230', 'lighting': 'u', 'race_guess': 'w', 'gender_guess': 'm', 'quality': '3', 'quality_eyes': '3', 'quality_mouth': '3', 'quality_ears': '3', 'quality_hair': '3', 'quality_neck': '3', 'facial_hair': '0.0', 'notes': 'hair', 'race_common': 'white', 'gender_common': 'man'}",,,,,,,,,,,,,,,,,,,,,,,,,,,,,,,,,,,,,,,,,,,,,,,,,,,,,,,,,
1064,632236e79cb434415f3c177d,2437,False,"['../stimuli/version1_gray_lm/id004_25L_C.png', '../stimuli/version1_gray_lm/id058_25R_U.png', '../stimuli/version1_gray_lm/id058_00C_D.png']",arrowleft,1.0,0.0,004,25L,C,black,man,"[1, 2]",058,"['25R', '00C']","['U', 'D']",black,man,0.8772100806236267,"[0.7833719253540039, 0.8584412336349487]",encoding,16,92484,0.0-13.0,60fc3be8b7778559e151b9dc,632233549dc26661ffa446b5,63223683b3ebcc98e45e424d,1.0,True,4.0,bekm0cy9xqoaj3vlle58,"9/14/2022, 3:18:00 PM",Chrome,main_task_5,chris,prolific_afc4,,"{'muct_id': '4', 'lighting': 'q', 'race_guess': 'b', 'gender_guess': 'm', 'quality': '3', 'quality_eyes': '3', 'quality_mouth': '3', 'quality_ears': '3', 'quality_hair': '3', 'quality_neck': '3', 'facial_hair': '2.0', 'notes': None, 'race_common': 'black', 'gender_common': 'man'}","{'muct_id': '84', 'lighting': 'q', 'race_guess': 'b', 'gender_guess': 'm', 'quality': '2', 'quality_eyes': '2', 'quality_mouth': '3', 'quality_ears': '3', 'quality_hair': '3', 'quality_neck': '3', 'facial_hair': '3.0', 'notes': 'beard', 'race_common': 'black', 'gender_common': 'man'}",,,,,,,,,,,,,,,,,,,,,,,,,,,,,,,,,,,,,,,,,,,,,,,,,,,,,,,,,
1065,632236ea9cb434415f3c177e,2617,False,"['../stimuli/version1_gray_lm/id088_25R_D.png', '../stimuli/version1_gray_lm/id007_00C_C.png', '../stimuli/version1_gray_lm/id088_25L_U.png']",arrowright,2.0,1.0,007,00C,C,white,woman,"[0, 2]",088,"['25R', '25L']","['D', 'U']",white,woman,0.8256771564483643,"[0.8346887826919556, 0.7882879972457886]",encoding,18,95640,0.0-15.0,60fc3be8b7778559e151b9dc,632233549dc26661ffa446b5,63223683b3ebcc98e45e424d,2.0,True,5.0,bekm0cy9xqoaj3vlle58,"9/14/2022, 3:18:04 PM",Chrome,main_task_5,chris,prolific_afc4,,"{'muct_id': '7', 'lighting': 's', 'race_guess': 'u', 'gender_guess': 'w', 'quality': '3', 'quality_eyes': '3', 'quality_mouth': '3', 'quality_ears': '3', 'quality_hair': '3', 'quality_neck': '3', 'facial_hair': '0.0', 'notes': None, 'race_common': 'white', 'gender_common': 'woman'}","{'muct_id': '252', 'lighting': 't', 'race_guess': 'w', 'gender_guess': 'w', 'quality': '3', 'quality_eyes': '3', 'quality_mouth': '3', 'quality_ears': '3', 'quality_hair': '3', 'quality_neck': '3', 'facial_hair': '0.0', 'notes': 'hair', 'race_common': 'white', 'gender_common': 'woman'}",,,,,,,,,,,,,,,,,,,,,,,,,,,,,,,,,,,,,,,,,,,,,,,,,,,,,,,,,
1066,632236ee9cb434415f3c177f,3036,False,"['../stimuli/version1_gray_lm/id102_25R_D.png', '../stimuli/version1_gray_lm/id102_25L_C.png', '../stimuli/version1_gray_lm/id109_00C_U.png']",arrowdown,3.0,2.0,109,00C,U,white,woman,"[0, 1]",102,"['25R', '25L']","['D', 'C']",white,woman,0.8098484873771667,"[0.8064560294151306, 0.8261992335319519]",encoding,20,99262,0.0-17.0,60fc3be8b7778559e151b9dc,632233549dc26661ffa446b5,63223683b3ebcc98e45e424d,3.0,True,6.0,bekm0cy9xqoaj3vlle58,"9/14/2022, 3:18:07 PM",Chrome,main_task_5,chris,prolific_afc4,,"{'muct_id': '401', 'lighting': 'w', 'race_guess': 'w', 'gender_guess': 'w', 'quality': '3', 'quality_eyes': '3', 'quality_mouth': '3', 'quality_ears': '3', 'quality_hair': '3', 'quality_neck': '3', 'facial_hair': '0.0', 'notes': 'mouth', 'race_common': 'white', 'gender_common': 'woman'}","{'muct_id': '283', 'lighting': 't', 'race_guess': 'i', 'gender_guess': 'w', 'quality': '3', 'quality_eyes': '3', 'quality_mouth': '3', 'quality_ears': '3', 'quality_hair': '3', 'quality_neck': '3', 'facial_hair': '0.0', 'notes': 'pottu', 'race_common': 'white', 'gender_common': 'woman'}",,,,,,,,,,,,,,,,,,,,,,,,,,,,,,,,,,,,,,,,,,,,,,,,,,,,,,,,,
1067,632236f09cb434415f3c1780,1906,False,"['../stimuli/version1_gray_lm/id133_25R_D.png', '../stimuli/version1_gray_lm/id077_00C_C.png', '../stimuli/version1_gray_lm/id077_25L_U.png']",arrowright,1.0,0.0,133,25R,D,black,woman,"[1, 2]",077,"['00C', '25L']","['C', 'U']",black,woman,0.8197259306907654,"[0.8481152653694153, 0.8132347464561462]",encoding,22,101691,0.0-19.0,60fc3be8b7778559e151b9dc,632233549dc26661ffa446b5,63223683b3ebcc98e45e424d,2.0,False,7.0,bekm0cy9xqoaj3vlle58,"9/14/2022, 3:18:10 PM",Chrome,main_task_5,chris,prolific_afc4,,"{'muct_id': '601', 'lighting': 'y', 'race_guess': 'b', 'gender_guess': 'w', 'quality': '3', 'quality_eyes': '3', 'quality_mouth': '3', 'quality_ears': '3', 'quality_hair': '3', 'quality_neck': '3', 'facial_hair': '0.0', 'notes': 'mouth', 'race_common': 'black', 'gender_common': 'woman'}","{'muct_id': '235', 'lighting': 'u', 'race_guess': 'b', 'gender_guess': 'w', 'quality': '3', 'quality_eyes': '3', 'quality_mouth': '3', 'quality_ears': '3', 'quality_hair': '3', 'quality_neck': '3', 'facial_hair': '0.0', 'notes': 'earrings', 'race_common': 'black', 'gender_common': 'woman'}",,,,,,,,,,,,,,,,,,,,,,,,,,,,,,,,,,,,,,,,,,,,,,,,,,,,,,,,,
1068,632236f39cb434415f3c1781,1900,False,"['../stimuli/version1_gray_lm/id086_00C_U.png', '../stimuli/version1_gray_lm/id040_25R_D.png', '../stimuli/version1_gray_lm/id040_25L_C.png']",arrowleft,1.0,0.0,086,00C,U,black,man,"[1, 2]",040,"['25R', '25L']","['D', 'C']",black,man,0.8033007383346558,"[0.8318915367126465, 0.8432617783546448]",encoding,24,104108,0.0-21.0,60fc3be8b7778559e151b9dc,632233549dc26661ffa446b5,63223683b3ebcc98e45e424d,1.0,True,8.0,bekm0cy9xqoaj3vlle58,"9/14/2022, 3:18:12 PM",Chrome,main_task_5,chris,prolific_afc4,,"{'muct_id': '250', 'lighting': 't', 'race_guess': 'b', 'gender_guess': 'm', 'quality': '3', 'quality_eyes': '3', 'quality_mouth': '3', 'quality_ears': '3', 'quality_hair': '3', 'quality_neck': '3', 'facial_hair': '1.0', 'notes': None, 'race_common': 'black', 'gender_common': 'man'}","{'muct_id': '55', 'lighting': 'r', 'race_guess': 'b', 'gender_guess': 'm', 'quality': '3', 'quality_eyes': '3', 'quality_mouth': '3', 'quality_ears': '3', 'quality_hair': '3', 'quality_neck': '3', 'facial_hair': '3.0', 'notes': 'beard', 'race_common': 'black', 'gender_common': 'man'}",,,,,,,,,,,,,,,,,,,,,,,,,,,,,,,,,,,,,,,,,,,,,,,,,,,,,,,,,
1069,632236f79cb434415f3c1782,3564,False,"['../stimuli/version1_gray_lm/id054_00C_C.png', '../stimuli/version1_gray_lm/id141_25L_D.png', '../stimuli/version1_gray_lm/id054_25R_U.png']",arrowright,2.0,1.0,141,25L,D,white,woman,"[0, 2]",054,"['00C', '25R']","['C', 'U']",white,woman,0.8510769605636597,"[0.8574673533439636, 0.8611087799072266]",encoding,26,108205,0.0-23.0,60fc3be8b7778559e151b9dc,632233549dc26661ffa446b5,63223683b3ebcc98e45e424d,2.0,True,9.0,bekm0cy9xqoaj3vlle58,"9/14/2022, 3:18:16 PM",Chrome,main_task_5,chris,prolific_afc4,,"{'muct_id': '77', 'lighting': 's', 'race_guess': 'w', 'gender_guess': 'w', 'quality': '3', 'quality_eyes': '3', 'quality_mouth': '3', 'quality_ears': '3', 'quality_hair': '3', 'quality_neck': '3', 'facial_hair': '0.0', 'notes': None, 'race_common': 'white', 'gender_common': 'woman'}","{'muct_id': '80', 'lighting': 's', 'race_guess': 'b', 'gender_guess': 'w', 'quality': '3', 'quality_eyes': '3', 'quality_mouth': '3', 'quality_ears': '3', 'quality_hair': '3', 'quality_neck': '3', 'facial_hair': '0.0', 'notes': 'earrings', 'race_common': 'white', 'gender_common': 'woman'}",,,,,,,,,,,,,,,,,,,,,,,,,,,,,,,,,,,,,,,,,,,,,,,,,,,,,,,,,
1070,632236fb9cb434415f3c1783,3480,False,"['../stimuli/version1_gray_lm/id021_00C_D.png', '../stimuli/version1_gray_lm/id056_25R_C.png', '../stimuli/version1_gray_lm/id056_25L_U.png']",arrowright,1.0,0.0,021,00C,D,black,man,"[1, 2]",056,"['25R', '25L']","['C', 'U']",black,man,0.8625242114067078,"[0.794366717338562, 0.7848536968231201]",encoding,28,112216,0.0-25.0,60fc3be8b7778559e151b9dc,632233549dc26661ffa446b5,63223683b3ebcc98e45e424d,2.0,False,10.0,bekm0cy9xqoaj3vlle58,"9/14/2022, 3:18:20 PM",Chrome,main_task_5,chris,prolific_afc4,,"{'muct_id': '25', 'lighting': 'r', 'race_guess': 'b', 'gender_guess': 'm', 'quality': '3', 'quality_eyes': '3', 'quality_mouth': '3', 'quality_ears': '3', 'quality_hair': '3', 'quality_neck': '3', 'facial_hair': '2.0', 'notes': None, 'race_common': 'black', 'gender_common': 'man'}","{'muct_id': '82', 'lighting': 'q', 'race_guess': 'b', 'gender_guess': 'm', 'quality': '3', 'quality_eyes': '3', 'quality_mouth': '3', 'quality_ears': '3', 'quality_hair': '3', 'quality_neck': '3', 'facial_hair': '1.0', 'notes': None, 'race_common': 'black', 'gender_common': 'man'}",,,,,,,,,,,,,,,,,,,,,,,,,,,,,,,,,,,,,,,,,,,,,,,,,,,,,,,,,
1071,632236fe9cb434415f3c1784,2582,False,"['../stimuli/version1_gray_lm/id148_25L_D.png', '../stimuli/version1_gray_lm/id148_25R_U.png', '../stimuli/version1_gray_lm/id051_00C_C.png']",arrowdown,3.0,2.0,051,00C,C,white,woman,"[0, 1]",148,"['25L', '25R']","['D', 'U']",white,woman,0.8894404172897339,"[0.8393746018409729, 0.8285102844238281]",encoding,30,115257,0.0-27.0,60fc3be8b7778559e151b9dc,632233549dc26661ffa446b5,63223683b3ebcc98e45e424d,3.0,True,11.0,bekm0cy9xqoaj3vlle58,"9/14/2022, 3:18:23 PM",Chrome,main_task_5,chris,prolific_afc4,,"{'muct_id': '74', 'lighting': 'q', 'race_guess': 'w', 'gender_guess': 'w', 'quality': '3', 'quality_eyes': '3', 'quality_mouth': '3', 'quality_ears': '3', 'quality_hair': '3', 'quality_neck': '3', 'facial_hair': '0.0', 'notes': None, 'race_common': 'white', 'gender_common': 'woman'}","{'muct_id': '415', 'lighting': 'w', 'race_guess': 'w', 'gender_guess': 'w', 'quality': '3', 'quality_eyes': '3', 'quality_mouth': '3', 'quality_ears': '3', 'quality_hair': '3', 'quality_neck': '3', 'facial_hair': '0.0', 'notes': None, 'race_common': 'white', 'gender_common': 'woman'}",,,,,,,,,,,,,,,,,,,,,,,,,,,,,,,,,,,,,,,,,,,,,,,,,,,,,,,,,
1072,632237029cb434415f3c1785,3616,False,"['../stimuli/version1_gray_lm/id072_00C_C.png', '../stimuli/version1_gray_lm/id137_25R_U.png', '../stimuli/version1_gray_lm/id137_25L_D.png']",arrowleft,1.0,0.0,072,00C,C,black,man,"[1, 2]",137,"['25R', '25L']","['U', 'D']",black,man,0.8451084494590759,"[0.8509373664855957, 0.8819496631622314]",encoding,32,119261,0.0-29.0,60fc3be8b7778559e151b9dc,632233549dc26661ffa446b5,63223683b3ebcc98e45e424d,1.0,True,12.0,bekm0cy9xqoaj3vlle58,"9/14/2022, 3:18:27 PM",Chrome,main_task_5,chris,prolific_afc4,,"{'muct_id': '224', 'lighting': 't', 'race_guess': 'u', 'gender_guess': 'm', 'quality': '3', 'quality_eyes': '3', 'quality_mouth': '3', 'quality_ears': '3', 'quality_hair': '3', 'quality_neck': '3', 'facial_hair': '0.0', 'notes': 'smile', 'race_common': 'black', 'gender_common': 'man'}","{'muct_id': '617', 'lighting': 'y', 'race_guess': 'b', 'gender_guess': 'w', 'quality': '3', 'quality_eyes': '3', 'quality_mouth': '3', 'quality_ears': '3', 'quality_hair': '3', 'quality_neck': '3', 'facial_hair': '0.0', 'notes': 'mouth', 'race_common': 'black', 'gender_common': 'man'}",,,,,,,,,,,,,,,,,,,,,,,,,,,,,,,,,,,,,,,,,,,,,,,,,,,,,,,,,
1073,632237079cb434415f3c1786,5227,False,"['../stimuli/version1_gray_lm/id002_25R_U.png', '../stimuli/version1_gray_lm/id002_00C_C.png', '../stimuli/version1_gray_lm/id044_25L_D.png']",arrowdown,3.0,2.0,044,25L,D,white,man,"[0, 1]",002,"['25R', '00C']","['U', 'C']",white,man,0.8435930013656616,"[0.8175423741340637, 0.8065407872200012]",encoding,34,124976,0.0-31.0,60fc3be8b7778559e151b9dc,632233549dc26661ffa446b5,63223683b3ebcc98e45e424d,3.0,True,13.0,bekm0cy9xqoaj3vlle58,"9/14/2022, 3:18:33 PM",Chrome,main_task_5,chris,prolific_afc4,,"{'muct_id': '60', 'lighting': 's', 'race_guess': 'u', 'gender_guess': 'm', 'quality': '3', 'quality_eyes': '3', 'quality_mouth': '3', 'quality_ears': '3', 'quality_hair': '3', 'quality_neck': '3', 'facial_hair': '2.0', 'notes': None, 'race_common': 'white', 'gender_common': 'man'}","{'muct_id': '2', 'lighting': 'r', 'race_guess': 'w', 'gender_guess': 'm', 'quality': '3', 'quality_eyes': '3', 'quality_mouth': '3', 'quality_ears': '3', 'quality_hair': '3', 'quality_neck': '3', 'facial_hair': '2.0', 'notes': 'eyes', 'race_common': 'white', 'gender_common': 'man'}",,,,,,,,,,,,,,,,,,,,,,,,,,,,,,,,,,,,,,,,,,,,,,,,,,,,,,,,,
1074,6322370a9cb434415f3c1787,1790,False,"['../stimuli/version1_gray_lm/id093_25R_D.png', '../stimuli/version1_gray_lm/id093_25L_C.png', '../stimuli/version1_gray_lm/id061_00C_U.png']",arrowdown,3.0,2.0,061,00C,U,white,man,"[0, 1]",093,"['25R', '25L']","['D', 'C']",white,man,0.8217813372612,"[0.8248165845870972, 0.8521727323532104]",encoding,36,127376,0.0-33.0,60fc3be8b7778559e151b9dc,632233549dc26661ffa446b5,63223683b3ebcc98e45e424d,3.0,True,14.0,bekm0cy9xqoaj3vlle58,"9/14/2022, 3:18:35 PM",Chrome,main_task_5,chris,prolific_afc4,,"{'muct_id': '89', 'lighting': 'r', 'race_guess': 'w', 'gender_guess': 'm', 'quality': '3', 'quality_eyes': '3', 'quality_mouth': '3', 'quality_ears': '3', 'quality_hair': '3', 'quality_neck': '3', 'facial_hair': '2.0', 'notes': None, 'race_common': 'white', 'gender_common': 'man'}","{'muct_id': '263', 'lighting': 'u', 'race_guess': 'w', 'gender_guess': 'm', 'quality': '3', 'quality_eyes': '3', 'quality_mouth': '3', 'quality_ears': '3', 'quality_hair': '3', 'quality_neck': '3', 'facial_hair': '2.0', 'notes': None, 'race_common': 'white', 'gender_common': 'man'}",,,,,,,,,,,,,,,,,,,,,,,,,,,,,,,,,,,,,,,,,,,,,,,,,,,,,,,,,
1075,632237109cb434415f3c1788,5477,False,"['../stimuli/version1_gray_lm/id113_25L_C.png', '../stimuli/version1_gray_lm/id098_00C_U.png', '../stimuli/version1_gray_lm/id113_25R_D.png']",arrowright,2.0,1.0,098,00C,U,black,man,"[0, 2]",113,"['25L', '25R']","['C', 'D']",black,man,0.7806364893913269,"[0.8327906131744385, 0.810193657875061]",encoding,38,133323,0.0-35.0,60fc3be8b7778559e151b9dc,632233549dc26661ffa446b5,63223683b3ebcc98e45e424d,2.0,True,15.0,bekm0cy9xqoaj3vlle58,"9/14/2022, 3:18:41 PM",Chrome,main_task_5,chris,prolific_afc4,,"{'muct_id': '274', 'lighting': 't', 'race_guess': 'b', 'gender_guess': 'm', 'quality': '3', 'quality_eyes': '3', 'quality_mouth': '3', 'quality_ears': '3', 'quality_hair': '3', 'quality_neck': '3', 'facial_hair': '4.0', 'notes': None, 'race_common': 'black', 'gender_common': 'man'}","{'muct_id': '407', 'lighting': 'x', 'race_guess': 'u', 'gender_guess': 'm', 'quality': '3', 'quality_eyes': '3', 'quality_mouth': '3', 'quality_ears': '3', 'quality_hair': '3', 'quality_neck': '3', 'facial_hair': '3.0', 'notes': 'beard', 'race_common': 'black', 'gender_common': 'man'}",,,,,,,,,,,,,,,,,,,,,,,,,,,,,,,,,,,,,,,,,,,,,,,,,,,,,,,,,
1076,632237139cb434415f3c1789,2415,False,"['../stimuli/version1_gray_lm/id112_25L_D.png', '../stimuli/version1_gray_lm/id090_00C_U.png', '../stimuli/version1_gray_lm/id112_25R_C.png']",arrowright,2.0,1.0,090,00C,U,black,man,"[0, 2]",112,"['25L', '25R']","['D', 'C']",black,man,0.8371393084526062,"[0.8327156901359558, 0.8131300210952759]",encoding,40,136454,0.0-37.0,60fc3be8b7778559e151b9dc,632233549dc26661ffa446b5,63223683b3ebcc98e45e424d,2.0,True,16.0,bekm0cy9xqoaj3vlle58,"9/14/2022, 3:18:44 PM",Chrome,main_task_5,chris,prolific_afc4,,"{'muct_id': '259', 'lighting': 'v', 'race_guess': 'b', 'gender_guess': 'm', 'quality': '3', 'quality_eyes': '3', 'quality_mouth': '3', 'quality_ears': '3', 'quality_hair': '3', 'quality_neck': '3', 'facial_hair': '2.0', 'notes': None, 'race_common': 'black', 'gender_common': 'man'}","{'muct_id': '406', 'lighting': 'w', 'race_guess': 'b', 'gender_guess': 'm', 'quality': '3', 'quality_eyes': '3', 'quality_mouth': '3', 'quality_ears': '3', 'quality_hair': '3', 'quality_neck': '3', 'facial_hair': '1.0', 'notes': None, 'race_common': 'black', 'gender_common': 'man'}",,,,,,,,,,,,,,,,,,,,,,,,,,,,,,,,,,,,,,,,,,,,,,,,,,,,,,,,,
1077,632237189cb434415f3c178a,4316,False,"['../stimuli/version1_gray_lm/id001_00C_U.png', '../stimuli/version1_gray_lm/id132_25L_C.png', '../stimuli/version1_gray_lm/id001_25R_D.png']",arrowright,2.0,1.0,132,25L,C,black,man,"[0, 2]",001,"['00C', '25R']","['U', 'D']",black,man,0.8329433798789978,"[0.7931580543518066, 0.8618886470794678]",encoding,42,141286,0.0-39.0,60fc3be8b7778559e151b9dc,632233549dc26661ffa446b5,63223683b3ebcc98e45e424d,2.0,True,17.0,bekm0cy9xqoaj3vlle58,"9/14/2022, 3:18:49 PM",Chrome,main_task_5,chris,prolific_afc4,,"{'muct_id': '450', 'lighting': 'w', 'race_guess': 'b', 'gender_guess': 'm', 'quality': '3', 'quality_eyes': '3', 'quality_mouth': '3', 'quality_ears': '3', 'quality_hair': '3', 'quality_neck': '3', 'facial_hair': '4.0', 'notes': 'mouth', 'race_common': 'black', 'gender_common': 'man'}","{'muct_id': '1', 'lighting': 'q', 'race_guess': 'b', 'gender_guess': 'm', 'quality': '3', 'quality_eyes': '3', 'quality_mouth': '3', 'quality_ears': '3', 'quality_hair': '3', 'quality_neck': '3', 'facial_hair': '1.0', 'notes': None, 'race_common': 'black', 'gender_common': 'man'}",,,,,,,,,,,,,,,,,,,,,,,,,,,,,,,,,,,,,,,,,,,,,,,,,,,,,,,,,
1078,6322371a9cb434415f3c178b,1707,False,"['../stimuli/version1_gray_lm/id068_00C_U.png', '../stimuli/version1_gray_lm/id103_25L_D.png', '../stimuli/version1_gray_lm/id103_25R_C.png']",arrowleft,1.0,0.0,068,00C,U,black,woman,"[1, 2]",103,"['25L', '25R']","['D', 'C']",black,woman,0.8365638256072998,"[0.8758910298347473, 0.7935617566108704]",encoding,44,143467,0.0-41.0,60fc3be8b7778559e151b9dc,632233549dc26661ffa446b5,63223683b3ebcc98e45e424d,1.0,True,18.0,bekm0cy9xqoaj3vlle58,"9/14/2022, 3:18:51 PM",Chrome,main_task_5,chris,prolific_afc4,,"{'muct_id': '213', 'lighting': 'u', 'race_guess': 'b', 'gender_guess': 'w', 'quality': '3', 'quality_eyes': '3', 'quality_mouth': '3', 'quality_ears': '3', 'quality_hair': '3', 'quality_neck': '3', 'facial_hair': '0.0', 'notes': None, 'race_common': 'black', 'gender_common': 'woman'}","{'muct_id': '285', 'lighting': 'v', 'race_guess': 'b', 'gender_guess': 'w', 'quality': '3', 'quality_eyes': '3', 'quality_mouth': '3', 'quality_ears': '3', 'quality_hair': '3', 'quality_neck': '3', 'facial_hair': '0.0', 'notes': 'earrings', 'race_common': 'black', 'gender_common': 'woman'}",,,,,,,,,,,,,,,,,,,,,,,,,,,,,,,,,,,,,,,,,,,,,,,,,,,,,,,,,
1079,6322371c9cb434415f3c178c,1749,False,"['../stimuli/version1_gray_lm/id152_25R_D.png', '../stimuli/version1_gray_lm/id152_00C_C.png', '../stimuli/version1_gray_lm/id101_25L_U.png']",arrowdown,3.0,2.0,101,25L,U,white,woman,"[0, 1]",152,"['25R', '00C']","['D', 'C']",white,woman,0.7889022827148438,"[0.8466804623603821, 0.8687135577201843]",encoding,46,145744,0.0-43.0,60fc3be8b7778559e151b9dc,632233549dc26661ffa446b5,63223683b3ebcc98e45e424d,3.0,True,19.0,bekm0cy9xqoaj3vlle58,"9/14/2022, 3:18:54 PM",Chrome,main_task_5,chris,prolific_afc4,,"{'muct_id': '281', 'lighting': 't', 'race_guess': 'w', 'gender_guess': 'w', 'quality': '3', 'quality_eyes': '3', 'quality_mouth': '3', 'quality_ears': '3', 'quality_hair': '3', 'quality_neck': '3', 'facial_hair': '0.0', 'notes': None, 'race_common': 'white', 'gender_common': 'woman'}","{'muct_id': '446', 'lighting': 'w', 'race_guess': 'w', 'gender_guess': 'w', 'quality': '3', 'quality_eyes': '3', 'quality_mouth': '3', 'quality_ears': '3', 'quality_hair': '3', 'quality_neck': '3', 'facial_hair': '0.0', 'notes': None, 'race_common': 'white', 'gender_common': 'woman'}",,,,,,,,,,,,,,,,,,,,,,,,,,,,,,,,,,,,,,,,,,,,,,,,,,,,,,,,,
1080,6322371e9cb434415f3c178d,1588,False,"['../stimuli/version1_gray_lm/id092_25L_C.png', '../stimuli/version1_gray_lm/id092_00C_U.png', '../stimuli/version1_gray_lm/id049_25R_D.png']",arrowdown,3.0,2.0,049,25R,D,white,man,"[0, 1]",092,"['25L', '00C']","['C', 'U']",white,man,0.8457704782485962,"[0.8014035224914551, 0.833930253982544]",encoding,48,147865,0.0-45.0,60fc3be8b7778559e151b9dc,632233549dc26661ffa446b5,63223683b3ebcc98e45e424d,3.0,True,20.0,bekm0cy9xqoaj3vlle58,"9/14/2022, 3:18:56 PM",Chrome,main_task_5,chris,prolific_afc4,,"{'muct_id': '66', 'lighting': 'r', 'race_guess': 'w', 'gender_guess': 'm', 'quality': '3', 'quality_eyes': '3', 'quality_mouth': '3', 'quality_ears': '3', 'quality_hair': '3', 'quality_neck': '3', 'facial_hair': '0.0', 'notes': None, 'race_common': 'white', 'gender_common': 'man'}","{'muct_id': '261', 'lighting': 'v', 'race_guess': 'w', 'gender_guess': 'm', 'quality': '2', 'quality_eyes': '2', 'quality_mouth': '3', 'quality_ears': '3', 'quality_hair': '3', 'quality_neck': '3', 'facial_hair': '0.0', 'notes': None, 'race_common': 'white', 'gender_common': 'man'}",,,,,,,,,,,,,,,,,,,,,,,,,,,,,,,,,,,,,,,,,,,,,,,,,,,,,,,,,
1081,632237219cb434415f3c178e,2241,False,"['../stimuli/version1_gray_lm/id063_25L_U.png', '../stimuli/version1_gray_lm/id063_25R_D.png', '../stimuli/version1_gray_lm/id089_00C_C.png']",arrowdown,3.0,2.0,089,00C,C,white,man,"[0, 1]",063,"['25L', '25R']","['U', 'D']",white,man,0.8815897107124329,"[0.8383276462554932, 0.841525673866272]",encoding,50,150621,0.0-47.0,60fc3be8b7778559e151b9dc,632233549dc26661ffa446b5,63223683b3ebcc98e45e424d,3.0,True,21.0,bekm0cy9xqoaj3vlle58,"9/14/2022, 3:18:58 PM",Chrome,main_task_5,chris,prolific_afc4,,"{'muct_id': '255', 'lighting': 't', 'race_guess': 'w', 'gender_guess': 'm', 'quality': '3', 'quality_eyes': '3', 'quality_mouth': '3', 'quality_ears': '3', 'quality_hair': '3', 'quality_neck': '3', 'facial_hair': '2.0', 'notes': None, 'race_common': 'white', 'gender_common': 'man'}","{'muct_id': '203', 'lighting': 'u', 'race_guess': 'i', 'gender_guess': 'm', 'quality': '2', 'quality_eyes': '2', 'quality_mouth': '3', 'quality_ears': '3', 'quality_hair': '3', 'quality_neck': '3', 'facial_hair': '2.0', 'notes': 'mouth', 'race_common': 'white', 'gender_common': 'man'}",,,,,,,,,,,,,,,,,,,,,,,,,,,,,,,,,,,,,,,,,,,,,,,,,,,,,,,,,
1082,632237249cb434415f3c178f,2294,False,"['../stimuli/version1_gray_lm/id149_25L_U.png', '../stimuli/version1_gray_lm/id149_00C_D.png', '../stimuli/version1_gray_lm/id143_25R_C.png']",arrowdown,3.0,2.0,143,25R,C,white,man,"[0, 1]",149,"['25L', '00C']","['U', 'D']",white,man,0.8368167877197266,"[0.7955148816108704, 0.8829626441001892]",encoding,52,153402,0.0-49.0,60fc3be8b7778559e151b9dc,632233549dc26661ffa446b5,63223683b3ebcc98e45e424d,3.0,True,22.0,bekm0cy9xqoaj3vlle58,"9/14/2022, 3:19:01 PM",Chrome,main_task_5,chris,prolific_afc4,,"{'muct_id': '90', 'lighting': 'q', 'race_guess': 'u', 'gender_guess': 'm', 'quality': '2', 'quality_eyes': '3', 'quality_mouth': '3', 'quality_ears': '2', 'quality_hair': '3', 'quality_neck': '3', 'facial_hair': '4.0', 'notes': 'beard', 'race_common': 'white', 'gender_common': 'man'}","{'muct_id': '416', 'lighting': 'w', 'race_guess': 'w', 'gender_guess': 'm', 'quality': '3', 'quality_eyes': '3', 'quality_mouth': '3', 'quality_ears': '3', 'quality_hair': '3', 'quality_neck': '3', 'facial_hair': '2.0', 'notes': None, 'race_common': 'white', 'gender_common': 'man'}",,,,,,,,,,,,,,,,,,,,,,,,,,,,,,,,,,,,,,,,,,,,,,,,,,,,,,,,,
1083,632237279cb434415f3c1790,2978,False,"['../stimuli/version1_gray_lm/id091_00C_D.png', '../stimuli/version1_gray_lm/id091_25R_U.png', '../stimuli/version1_gray_lm/id121_25L_C.png']",arrowdown,3.0,2.0,121,25L,C,black,man,"[0, 1]",091,"['00C', '25R']","['D', 'U']",black,man,0.8250187039375305,"[0.8683218955993652, 0.8492058515548706]",encoding,54,156823,0.0-51.0,60fc3be8b7778559e151b9dc,632233549dc26661ffa446b5,63223683b3ebcc98e45e424d,3.0,True,23.0,bekm0cy9xqoaj3vlle58,"9/14/2022, 3:19:05 PM",Chrome,main_task_5,chris,prolific_afc4,,"{'muct_id': '423', 'lighting': 'w', 'race_guess': 'b', 'gender_guess': 'm', 'quality': '3', 'quality_eyes': '3', 'quality_mouth': '3', 'quality_ears': '3', 'quality_hair': '3', 'quality_neck': '3', 'facial_hair': '1.0', 'notes': None, 'race_common': 'black', 'gender_common': 'man'}","{'muct_id': '260', 'lighting': 't', 'race_guess': 'b', 'gender_guess': 'm', 'quality': '3', 'quality_eyes': '3', 'quality_mouth': '3', 'quality_ears': '3', 'quality_hair': '3', 'quality_neck': '3', 'facial_hair': '4.0', 'notes': 'beard', 'race_common': 'black', 'gender_common': 'man'}",,,,,,,,,,,,,,,,,,,,,,,,,,,,,,,,,,,,,,,,,,,,,,,,,,,,,,,,,
1084,6322372c9cb434415f3c1791,3866,False,"['../stimuli/version1_gray_lm/id057_00C_C.png', '../stimuli/version1_gray_lm/id057_25L_U.png', '../stimuli/version1_gray_lm/id064_25R_D.png']",arrowleft,3.0,2.0,064,25R,D,black,man,"[0, 1]",057,"['00C', '25L']","['C', 'U']",black,man,0.8336070775985718,"[0.884845495223999, 0.8351224660873413]",encoding,56,161173,0.0-53.0,60fc3be8b7778559e151b9dc,632233549dc26661ffa446b5,63223683b3ebcc98e45e424d,1.0,False,24.0,bekm0cy9xqoaj3vlle58,"9/14/2022, 3:19:09 PM",Chrome,main_task_5,chris,prolific_afc4,,"{'muct_id': '204', 'lighting': 't', 'race_guess': 'b', 'gender_guess': 'm', 'quality': '3', 'quality_eyes': '3', 'quality_mouth': '3', 'quality_ears': '3', 'quality_hair': '3', 'quality_neck': '3', 'facial_hair': '1.0', 'notes': None, 'race_common': 'black', 'gender_common': 'man'}","{'muct_id': '83', 'lighting': 'r', 'race_guess': 'b', 'gender_guess': 'm', 'quality': '3', 'quality_eyes': '3', 'quality_mouth': '3', 'quality_ears': '3', 'quality_hair': '3', 'quality_neck': '3', 'facial_hair': '3.0', 'notes': None, 'race_common': 'black', 'gender_common': 'man'}",,,,,,,,,,,,,,,,,,,,,,,,,,,,,,,,,,,,,,,,,,,,,,,,,,,,,,,,,
1085,6322372e9cb434415f3c1792,1577,False,"['../stimuli/version1_gray_lm/id123_25L_D.png', '../stimuli/version1_gray_lm/id123_25R_C.png', '../stimuli/version1_gray_lm/id031_00C_U.png']",arrowdown,3.0,2.0,031,00C,U,white,woman,"[0, 1]",123,"['25L', '25R']","['D', 'C']",white,woman,0.8432312607765198,"[0.852514386177063, 0.7788952589035034]",encoding,58,163232,0.0-55.0,60fc3be8b7778559e151b9dc,632233549dc26661ffa446b5,63223683b3ebcc98e45e424d,3.0,True,25.0,bekm0cy9xqoaj3vlle58,"9/14/2022, 3:19:11 PM",Chrome,main_task_5,chris,prolific_afc4,,"{'muct_id': '42', 'lighting': 'q', 'race_guess': 'u', 'gender_guess': 'w', 'quality': '2', 'quality_eyes': '3', 'quality_mouth': '3', 'quality_ears': '2', 'quality_hair': '3', 'quality_neck': '3', 'facial_hair': '0.0', 'notes': 'mouth', 'race_common': 'white', 'gender_common': 'woman'}","{'muct_id': '76', 'lighting': 'q', 'race_guess': 'w', 'gender_guess': 'w', 'quality': '2', 'quality_eyes': '2', 'quality_mouth': '3', 'quality_ears': '2', 'quality_hair': '2', 'quality_neck': '3', 'facial_hair': '0.0', 'notes': 'hair', 'race_common': 'white', 'gender_common': 'woman'}",,,,,,,,,,,,,,,,,,,,,,,,,,,,,,,,,,,,,,,,,,,,,,,,,,,,,,,,,
1086,632237359cb434415f3c1793,6319,False,"['../stimuli/version1_gray_lm/id107_25L_D.png', '../stimuli/version1_gray_lm/id107_25R_U.png', '../stimuli/version1_gray_lm/id105_00C_C.png']",arrowright,3.0,2.0,105,00C,C,black,man,"[0, 1]",107,"['25L', '25R']","['D', 'U']",black,man,0.8415019512176514,"[0.846289873123169, 0.8212865591049194]",encoding,60,170027,0.0-57.0,60fc3be8b7778559e151b9dc,632233549dc26661ffa446b5,63223683b3ebcc98e45e424d,2.0,False,26.0,bekm0cy9xqoaj3vlle58,"9/14/2022, 3:19:18 PM",Chrome,main_task_5,chris,prolific_afc4,,"{'muct_id': '290', 'lighting': 't', 'race_guess': 'b', 'gender_guess': 'm', 'quality': '3', 'quality_eyes': '3', 'quality_mouth': '3', 'quality_ears': '3', 'quality_hair': '3', 'quality_neck': '3', 'facial_hair': '2.0', 'notes': None, 'race_common': 'black', 'gender_common': 'man'}","{'muct_id': '297', 'lighting': 't', 'race_guess': 'b', 'gender_guess': 'm', 'quality': '3', 'quality_eyes': '3', 'quality_mouth': '3', 'quality_ears': '3', 'quality_hair': '3', 'quality_neck': '3', 'facial_hair': '4.0', 'notes': 'beard', 'race_common': 'black', 'gender_common': 'man'}",,,,,,,,,,,,,,,,,,,,,,,,,,,,,,,,,,,,,,,,,,,,,,,,,,,,,,,,,
1087,632237379cb434415f3c1794,1756,False,"['../stimuli/version1_gray_lm/id035_25R_D.png', '../stimuli/version1_gray_lm/id035_25L_C.png', '../stimuli/version1_gray_lm/id046_00C_U.png']",arrowdown,3.0,2.0,046,00C,U,black,woman,"[0, 1]",035,"['25R', '25L']","['D', 'C']",black,woman,0.8414678573608398,"[0.8423609733581543, 0.8187308311462402]",encoding,62,172224,0.0-59.0,60fc3be8b7778559e151b9dc,632233549dc26661ffa446b5,63223683b3ebcc98e45e424d,3.0,True,27.0,bekm0cy9xqoaj3vlle58,"9/14/2022, 3:19:20 PM",Chrome,main_task_5,chris,prolific_afc4,,"{'muct_id': '63', 'lighting': 'q', 'race_guess': 'i', 'gender_guess': 'w', 'quality': '3', 'quality_eyes': '3', 'quality_mouth': '3', 'quality_ears': '3', 'quality_hair': '3', 'quality_neck': '3', 'facial_hair': '0.0', 'notes': None, 'race_common': 'black', 'gender_common': 'woman'}","{'muct_id': '46', 'lighting': 'q', 'race_guess': 'b', 'gender_guess': 'w', 'quality': '3', 'quality_eyes': '3', 'quality_mouth': '3', 'quality_ears': '3', 'quality_hair': '3', 'quality_neck': '3', 'facial_hair': '0.0', 'notes': 'earrings', 'race_common': 'black', 'gender_common': 'woman'}",,,,,,,,,,,,,,,,,,,,,,,,,,,,,,,,,,,,,,,,,,,,,,,,,,,,,,,,,
1088,6322373a9cb434415f3c1795,3237,False,"['../stimuli/version1_gray_lm/id050_00C_D.png', '../stimuli/version1_gray_lm/id073_25R_C.png', '../stimuli/version1_gray_lm/id050_25L_U.png']",arrowright,2.0,1.0,073,25R,C,white,man,"[0, 2]",050,"['00C', '25L']","['D', 'U']",white,man,0.825577437877655,"[0.871090829372406, 0.7863359451293945]",encoding,64,175877,0.0-61.0,60fc3be8b7778559e151b9dc,632233549dc26661ffa446b5,63223683b3ebcc98e45e424d,2.0,True,28.0,bekm0cy9xqoaj3vlle58,"9/14/2022, 3:19:24 PM",Chrome,main_task_5,chris,prolific_afc4,,"{'muct_id': '225', 'lighting': 'u', 'race_guess': 'w', 'gender_guess': 'm', 'quality': '3', 'quality_eyes': '3', 'quality_mouth': '3', 'quality_ears': '3', 'quality_hair': '3', 'quality_neck': '3', 'facial_hair': '2.0', 'notes': None, 'race_common': 'white', 'gender_common': 'man'}","{'muct_id': '70', 'lighting': 'r', 'race_guess': 'w', 'gender_guess': 'm', 'quality': '3', 'quality_eyes': '3', 'quality_mouth': '3', 'quality_ears': '3', 'quality_hair': '3', 'quality_neck': '3', 'facial_hair': '4.0', 'notes': 'beard', 'race_common': 'white', 'gender_common': 'man'}",,,,,,,,,,,,,,,,,,,,,,,,,,,,,,,,,,,,,,,,,,,,,,,,,,,,,,,,,
1089,632237419cb434415f3c1796,5822,False,"['../stimuli/version1_gray_lm/id012_25L_C.png', '../stimuli/version1_gray_lm/id074_00C_D.png', '../stimuli/version1_gray_lm/id074_25R_U.png']",arrowleft,1.0,0.0,012,25L,C,white,man,"[1, 2]",074,"['00C', '25R']","['D', 'U']",white,man,0.8423568606376648,"[0.8694271445274353, 0.7912924289703369]",encoding,66,182150,0.0-63.0,60fc3be8b7778559e151b9dc,632233549dc26661ffa446b5,63223683b3ebcc98e45e424d,1.0,True,29.0,bekm0cy9xqoaj3vlle58,"9/14/2022, 3:19:30 PM",Chrome,main_task_5,chris,prolific_afc4,,"{'muct_id': '12', 'lighting': 'q', 'race_guess': 'i', 'gender_guess': 'm', 'quality': '3', 'quality_eyes': '3', 'quality_mouth': '3', 'quality_ears': '3', 'quality_hair': '3', 'quality_neck': '3', 'facial_hair': '2.0', 'notes': None, 'race_common': 'white', 'gender_common': 'man'}","{'muct_id': '229', 'lighting': 't', 'race_guess': 'w', 'gender_guess': 'm', 'quality': '3', 'quality_eyes': '3', 'quality_mouth': '3', 'quality_ears': '3', 'quality_hair': '3', 'quality_neck': '3', 'facial_hair': '2.0', 'notes': 'mouth', 'race_common': 'white', 'gender_common': 'man'}",,,,,,,,,,,,,,,,,,,,,,,,,,,,,,,,,,,,,,,,,,,,,,,,,,,,,,,,,
1090,632237449cb434415f3c1797,3133,False,"['../stimuli/version1_gray_lm/id118_25L_C.png', '../stimuli/version1_gray_lm/id081_00C_U.png', '../stimuli/version1_gray_lm/id118_25R_D.png']",arrowright,2.0,1.0,081,00C,U,black,man,"[0, 2]",118,"['25L', '25R']","['C', 'D']",black,man,0.7884091734886169,"[0.8424609899520874, 0.8344197869300842]",encoding,68,185775,0.0-65.0,60fc3be8b7778559e151b9dc,632233549dc26661ffa446b5,63223683b3ebcc98e45e424d,2.0,True,30.0,bekm0cy9xqoaj3vlle58,"9/14/2022, 3:19:34 PM",Chrome,main_task_5,chris,prolific_afc4,,"{'muct_id': '241', 'lighting': 't', 'race_guess': 'u', 'gender_guess': 'm', 'quality': '3', 'quality_eyes': '3', 'quality_mouth': '3', 'quality_ears': '3', 'quality_hair': '3', 'quality_neck': '3', 'facial_hair': '1.0', 'notes': 'mouth', 'race_common': 'black', 'gender_common': 'man'}","{'muct_id': '419', 'lighting': 'x', 'race_guess': 'b', 'gender_guess': 'm', 'quality': '3', 'quality_eyes': '3', 'quality_mouth': '3', 'quality_ears': '3', 'quality_hair': '3', 'quality_neck': '3', 'facial_hair': '1.0', 'notes': None, 'race_common': 'black', 'gender_common': 'man'}",,,,,,,,,,,,,,,,,,,,,,,,,,,,,,,,,,,,,,,,,,,,,,,,,,,,,,,,,
1091,6322374a9cb434415f3c1798,5277,False,"['../stimuli/version1_gray_lm/id034_00C_U.png', '../stimuli/version1_gray_lm/id094_25L_D.png', '../stimuli/version1_gray_lm/id034_25R_C.png']",arrowright,2.0,1.0,094,25L,D,white,man,"[0, 2]",034,"['00C', '25R']","['U', 'C']",white,man,0.8378531336784363,"[0.8787979483604431, 0.8361088037490845]",encoding,70,191520,0.0-67.0,60fc3be8b7778559e151b9dc,632233549dc26661ffa446b5,63223683b3ebcc98e45e424d,2.0,True,31.0,bekm0cy9xqoaj3vlle58,"9/14/2022, 3:19:39 PM",Chrome,main_task_5,chris,prolific_afc4,,"{'muct_id': '264', 'lighting': 't', 'race_guess': 'w', 'gender_guess': 'm', 'quality': '3', 'quality_eyes': '3', 'quality_mouth': '3', 'quality_ears': '3', 'quality_hair': '3', 'quality_neck': '3', 'facial_hair': '0.0', 'notes': None, 'race_common': 'white', 'gender_common': 'man'}","{'muct_id': '45', 'lighting': 'q', 'race_guess': 'w', 'gender_guess': 'm', 'quality': '3', 'quality_eyes': '3', 'quality_mouth': '3', 'quality_ears': '3', 'quality_hair': '3', 'quality_neck': '3', 'facial_hair': '0.0', 'notes': None, 'race_common': 'white', 'gender_common': 'man'}",,,,,,,,,,,,,,,,,,,,,,,,,,,,,,,,,,,,,,,,,,,,,,,,,,,,,,,,,
1092,6322374f9cb434415f3c1799,1247,False,"['../stimuli/version1_gray_lm/id048_00C_C.png', '../stimuli/version1_gray_lm/id048_25L_U.png', '../stimuli/version1_gray_lm/id095_25R_D.png']",arrowdown,3.0,2.0,095,25R,D,latinx,man,"[0, 1]",048,"['00C', '25L']","['C', 'U']",latinx,woman,0.8420644402503967,"[0.8234363794326782, 0.768002986907959]",encoding_practice,3,103460,0.0-3.0-0.0,5c005838232b6c0001221acf,632233549dc26661ffa446b5,632236e172e92fa01859b2a5,3.0,True,1.0,dd6gu4wm7h6h7koncy4d,"9/14/2022, 3:19:29 PM",Chrome,main_task_5,chris,prolific_afc4,,,,,,,,,,,,,,,,,,,,,,,,,,,,,,,,,,,,,,,,,,,,,,,,,,,,,,,,,,,,
1093,632237509cb434415f3c179a,5920,False,"['../stimuli/version1_gray_lm/id019_00C_U.png', '../stimuli/version1_gray_lm/id060_25R_C.png', '../stimuli/version1_gray_lm/id019_25L_D.png']",arrowright,2.0,1.0,060,25R,C,black,woman,"[0, 2]",019,"['00C', '25L']","['U', 'D']",black,woman,0.8777643442153931,"[0.7794169783592224, 0.8795315027236938]",encoding,72,197918,0.0-69.0,60fc3be8b7778559e151b9dc,632233549dc26661ffa446b5,63223683b3ebcc98e45e424d,2.0,True,32.0,bekm0cy9xqoaj3vlle58,"9/14/2022, 3:19:46 PM",Chrome,main_task_5,chris,prolific_afc4,,"{'muct_id': '88', 'lighting': 'q', 'race_guess': 'b', 'gender_guess': 'w', 'quality': '3', 'quality_eyes': '3', 'quality_mouth': '3', 'quality_ears': '3', 'quality_hair': '3', 'quality_neck': '3', 'facial_hair': '0.0', 'notes': 'earrings', 'race_common': 'black', 'gender_common': 'woman'}","{'muct_id': '23', 'lighting': 'q', 'race_guess': 'b', 'gender_guess': 'u', 'quality': '3', 'quality_eyes': '3', 'quality_mouth': '3', 'quality_ears': '3', 'quality_hair': '3', 'quality_neck': '3', 'facial_hair': '0.0', 'notes': None, 'race_common': 'black', 'gender_common': 'woman'}",,,,,,,,,,,,,,,,,,,,,,,,,,,,,,,,,,,,,,,,,,,,,,,,,,,,,,,,,
1094,632237539cb434415f3c179b,1096,False,"['../stimuli/version1_gray_lm/id095_25L_C.png', '../stimuli/version1_gray_lm/id129_25R_U.png', '../stimuli/version1_gray_lm/id129_00C_D.png']",arrowdown,1.0,0.0,095,25L,C,latinx,man,"[1, 2]",129,"['25R', '00C']","['U', 'D']",latinx,man,0.8493541479110718,"[0.8396949768066406, 0.9172089695930481]",encoding_practice,5,106981,0.0-4.0-0.0,5c005838232b6c0001221acf,632233549dc26661ffa446b5,632236e172e92fa01859b2a5,3.0,False,2.0,dd6gu4wm7h6h7koncy4d,"9/14/2022, 3:19:33 PM",Chrome,main_task_5,chris,prolific_afc4,,,,,,,,,,,,,,,,,,,,,,,,,,,,,,,,,,,,,,,,,,,,,,,,,,,,,,,,,,,,
1095,632237559cb434415f3c179c,4308,False,"['../stimuli/version1_gray_lm/id018_00C_U.png', '../stimuli/version1_gray_lm/id153_25L_D.png', '../stimuli/version1_gray_lm/id153_25R_C.png']",arrowleft,1.0,0.0,018,00C,U,white,woman,"[1, 2]",153,"['25L', '25R']","['D', 'C']",white,woman,0.7882986664772034,"[0.8513438701629639, 0.8395979404449463]",encoding,74,202708,0.0-71.0,60fc3be8b7778559e151b9dc,632233549dc26661ffa446b5,63223683b3ebcc98e45e424d,1.0,True,33.0,bekm0cy9xqoaj3vlle58,"9/14/2022, 3:19:51 PM",Chrome,main_task_5,chris,prolific_afc4,,"{'muct_id': '21', 'lighting': 'q', 'race_guess': 'w', 'gender_guess': 'w', 'quality': '3', 'quality_eyes': '3', 'quality_mouth': '3', 'quality_ears': '3', 'quality_hair': '3', 'quality_neck': '3', 'facial_hair': '0.0', 'notes': None, 'race_common': 'white', 'gender_common': 'woman'}","{'muct_id': '437', 'lighting': 'x', 'race_guess': 'w', 'gender_guess': 'w', 'quality': '3', 'quality_eyes': '3', 'quality_mouth': '3', 'quality_ears': '3', 'quality_hair': '3', 'quality_neck': '3', 'facial_hair': '0.0', 'notes': 'hair', 'race_common': 'white', 'gender_common': 'woman'}",,,,,,,,,,,,,,,,,,,,,,,,,,,,,,,,,,,,,,,,,,,,,,,,,,,,,,,,,
1096,632237589cb434415f3c179d,2900,False,"['../stimuli/version1_gray_lm/id129_25R_D.png', '../stimuli/version1_gray_lm/id135_00C_U.png', '../stimuli/version1_gray_lm/id135_25L_C.png']",arrowleft,1.0,0.0,129,25R,D,latinx,man,"[1, 2]",135,"['00C', '25L']","['U', 'C']",latinx,woman,0.8516553640365601,"[0.875709593296051, 0.8055163621902466]",encoding_practice,3,83318,0.0-3.0-0.0,5ffe6b8b773ec452c1d28adc,632233549dc26661ffa446b4,632236c1c40eeb677a79b69c,1.0,True,1.0,3ywjuoa2bgcqfcvotmhb,"9/14/2022, 4:19:37 PM",Chrome,main_task_5,chris,prolific_afc4,,,,,,,,,,,,,,,,,,,,,,,,,,,,,,,,,,,,,,,,,,,,,,,,,,,,,,,,,,,,
1097,632237599cb434415f3c179e,3253,False,"['../stimuli/version1_gray_lm/id022_25L_C.png', '../stimuli/version1_gray_lm/id144_00C_D.png', '../stimuli/version1_gray_lm/id144_25R_U.png']",arrowleft,1.0,0.0,022,25L,C,black,woman,"[1, 2]",144,"['00C', '25R']","['D', 'U']",black,woman,0.8643106818199158,"[0.8262479305267334, 0.7941497564315796]",encoding,76,206670,0.0-73.0,60fc3be8b7778559e151b9dc,632233549dc26661ffa446b5,63223683b3ebcc98e45e424d,1.0,True,34.0,bekm0cy9xqoaj3vlle58,"9/14/2022, 3:19:55 PM",Chrome,main_task_5,chris,prolific_afc4,,"{'muct_id': '26', 'lighting': 'q', 'race_guess': 'b', 'gender_guess': 'w', 'quality': '3', 'quality_eyes': '3', 'quality_mouth': '3', 'quality_ears': '3', 'quality_hair': '3', 'quality_neck': '3', 'facial_hair': '0.0', 'notes': 'earrings', 'race_common': 'black', 'gender_common': 'woman'}","{'muct_id': '214', 'lighting': 'u', 'race_guess': 'b', 'gender_guess': 'w', 'quality': '2', 'quality_eyes': '2', 'quality_mouth': '3', 'quality_ears': '3', 'quality_hair': '3', 'quality_neck': '3', 'facial_hair': '0.0', 'notes': None, 'race_common': 'black', 'gender_common': 'woman'}",,,,,,,,,,,,,,,,,,,,,,,,,,,,,,,,,,,,,,,,,,,,,,,,,,,,,,,,,
1098,6322375b9cb434415f3c179f,1750,False,"['../stimuli/version1_gray_lm/id082_25L_C.png', '../stimuli/version1_gray_lm/id082_00C_D.png', '../stimuli/version1_gray_lm/id135_25R_U.png']",arrowdown,3.0,2.0,135,25R,U,latinx,woman,"[0, 1]",082,"['25L', '00C']","['C', 'D']",latinx,man,0.8272045254707336,"[0.8383644223213196, 0.8823029398918152]",encoding_practice,5,87112,0.0-4.0-0.0,5ffe6b8b773ec452c1d28adc,632233549dc26661ffa446b4,632236c1c40eeb677a79b69c,3.0,True,2.0,3ywjuoa2bgcqfcvotmhb,"9/14/2022, 4:19:41 PM",Chrome,main_task_5,chris,prolific_afc4,,,,,,,,,,,,,,,,,,,,,,,,,,,,,,,,,,,,,,,,,,,,,,,,,,,,,,,,,,,,
1099,6322375d9cb434415f3c17a0,7766,False,"['../stimuli/version1_gray_lm/id095_25L_C.png', '../stimuli/version1_gray_lm/id129_25R_U.png', '../stimuli/version1_gray_lm/id129_00C_D.png']",arrowleft,1.0,0.0,095,25L,C,latinx,man,"[1, 2]",129,"['25R', '00C']","['U', 'D']",latinx,man,0.8493541479110718,"[0.8396949768066406, 0.9172089695930481]",encoding_practice,7,117298,0.0-4.1-0.1,5c005838232b6c0001221acf,632233549dc26661ffa446b5,632236e172e92fa01859b2a5,1.0,True,3.0,dd6gu4wm7h6h7koncy4d,"9/14/2022, 3:19:43 PM",Chrome,main_task_5,chris,prolific_afc4,,,,,,,,,,,,,,,,,,,,,,,,,,,,,,,,,,,,,,,,,,,,,,,,,,,,,,,,,,,,
1100,6322375f9cb434415f3c17a1,2672,False,"['../stimuli/version1_gray_lm/id135_25L_D.png', '../stimuli/version1_gray_lm/id129_00C_C.png', '../stimuli/version1_gray_lm/id129_25R_U.png']",arrowleft,1.0,0.0,135,25L,D,latinx,woman,"[1, 2]",129,"['00C', '25R']","['C', 'U']",latinx,man,0.8692900538444519,"[0.8799553513526917, 0.8396949768066406]",encoding_practice,7,90912,0.0-5.0-0.0,5ffe6b8b773ec452c1d28adc,632233549dc26661ffa446b4,632236c1c40eeb677a79b69c,1.0,True,3.0,3ywjuoa2bgcqfcvotmhb,"9/14/2022, 4:19:45 PM",Chrome,main_task_5,chris,prolific_afc4,True,,,,,,,,,,,,,,,,,,,,,,,,,,,,,,,,,,,,,,,,,,,,,,,,,,,,,,,,,,,
1101,6322375f9cb434415f3c17a2,5687,False,"['../stimuli/version1_gray_lm/id128_25L_U.png', '../stimuli/version1_gray_lm/id128_00C_C.png', '../stimuli/version1_gray_lm/id065_25R_D.png']",arrowdown,3.0,2.0,065,25R,D,black,man,"[0, 1]",128,"['25L', '00C']","['U', 'C']",black,man,0.8317660689353943,"[0.8131529092788696, 0.8150124549865723]",encoding,78,212888,0.0-75.0,60fc3be8b7778559e151b9dc,632233549dc26661ffa446b5,63223683b3ebcc98e45e424d,3.0,True,35.0,bekm0cy9xqoaj3vlle58,"9/14/2022, 3:20:01 PM",Chrome,main_task_5,chris,prolific_afc4,,"{'muct_id': '206', 'lighting': 't', 'race_guess': 'b', 'gender_guess': 'm', 'quality': '3', 'quality_eyes': '3', 'quality_mouth': '3', 'quality_ears': '3', 'quality_hair': '3', 'quality_neck': '3', 'facial_hair': '1.0', 'notes': None, 'race_common': 'black', 'gender_common': 'man'}","{'muct_id': '436', 'lighting': 'w', 'race_guess': 'b', 'gender_guess': 'm', 'quality': '3', 'quality_eyes': '3', 'quality_mouth': '3', 'quality_ears': '3', 'quality_hair': '3', 'quality_neck': '3', 'facial_hair': '3.0', 'notes': 'beard', 'race_common': 'black', 'gender_common': 'man'}",,,,,,,,,,,,,,,,,,,,,,,,,,,,,,,,,,,,,,,,,,,,,,,,,,,,,,,,,
1102,632237649cb434415f3c17a3,3371,False,"['../stimuli/version1_gray_lm/id095_25R_C.png', '../stimuli/version1_gray_lm/id095_25L_U.png', '../stimuli/version1_gray_lm/id129_00C_D.png']",arrowdown,3.0,2.0,129,00C,D,latinx,man,"[0, 1]",095,"['25R', '25L']","['C', 'U']",latinx,man,0.9172089695930481,"[0.8291288018226624, 0.8158042430877686]",encoding_practice,9,123727,0.0-5.0-0.0,5c005838232b6c0001221acf,632233549dc26661ffa446b5,632236e172e92fa01859b2a5,3.0,True,4.0,dd6gu4wm7h6h7koncy4d,"9/14/2022, 3:19:50 PM",Chrome,main_task_5,chris,prolific_afc4,True,,,,,,,,,,,,,,,,,,,,,,,,,,,,,,,,,,,,,,,,,,,,,,,,,,,,,,,,,,,
1103,632237649cb434415f3c17a4,3878,False,"['../stimuli/version1_gray_lm/id017_00C_U.png', '../stimuli/version1_gray_lm/id125_25R_D.png', '../stimuli/version1_gray_lm/id017_25L_C.png']",arrowright,2.0,1.0,125,25R,D,white,woman,"[0, 2]",017,"['00C', '25L']","['U', 'C']",white,woman,0.8364993333816528,"[0.7843276262283325, 0.807895839214325]",encoding,80,217210,0.0-77.0,60fc3be8b7778559e151b9dc,632233549dc26661ffa446b5,63223683b3ebcc98e45e424d,2.0,True,36.0,bekm0cy9xqoaj3vlle58,"9/14/2022, 3:20:05 PM",Chrome,main_task_5,chris,prolific_afc4,,"{'muct_id': '433', 'lighting': 'x', 'race_guess': 'w', 'gender_guess': 'w', 'quality': '3', 'quality_eyes': '3', 'quality_mouth': '3', 'quality_ears': '3', 'quality_hair': '3', 'quality_neck': '3', 'facial_hair': '0.0', 'notes': None, 'race_common': 'white', 'gender_common': 'woman'}","{'muct_id': '19', 'lighting': 'r', 'race_guess': 'w', 'gender_guess': 'w', 'quality': '3', 'quality_eyes': '3', 'quality_mouth': '3', 'quality_ears': '3', 'quality_hair': '3', 'quality_neck': '3', 'facial_hair': '0.0', 'notes': None, 'race_common': 'white', 'gender_common': 'woman'}",,,,,,,,,,,,,,,,,,,,,,,,,,,,,,,,,,,,,,,,,,,,,,,,,,,,,,,,,
1104,632237669cb434415f3c17a5,2214,False,"['../stimuli/version1_gray_lm/id104_00C_D.png', '../stimuli/version1_gray_lm/id052_25R_U.png', '../stimuli/version1_gray_lm/id104_25L_C.png']",arrowright,2.0,1.0,052,25R,U,white,man,"[0, 2]",104,"['00C', '25L']","['D', 'C']",white,man,0.8309012055397034,"[0.8582553267478943, 0.82794189453125]",encoding,82,219955,0.0-79.0,60fc3be8b7778559e151b9dc,632233549dc26661ffa446b5,63223683b3ebcc98e45e424d,2.0,True,37.0,bekm0cy9xqoaj3vlle58,"9/14/2022, 3:20:08 PM",Chrome,main_task_5,chris,prolific_afc4,,"{'muct_id': '75', 'lighting': 'q', 'race_guess': 'w', 'gender_guess': 'm', 'quality': '3', 'quality_eyes': '3', 'quality_mouth': '3', 'quality_ears': '3', 'quality_hair': '3', 'quality_neck': '3', 'facial_hair': '4.0', 'notes': 'beard', 'race_common': 'white', 'gender_common': 'man'}","{'muct_id': '287', 'lighting': 't', 'race_guess': 'w', 'gender_guess': 'm', 'quality': '3', 'quality_eyes': '3', 'quality_mouth': '3', 'quality_ears': '3', 'quality_hair': '3', 'quality_neck': '3', 'facial_hair': '2.0', 'notes': None, 'race_common': 'white', 'gender_common': 'man'}",,,,,,,,,,,,,,,,,,,,,,,,,,,,,,,,,,,,,,,,,,,,,,,,,,,,,,,,,
1105,632237689cb434415f3c17a6,2926,False,"['../stimuli/version1_gray_lm/id005_25L_C.png', '../stimuli/version1_gray_lm/id144_00C_D.png', '../stimuli/version1_gray_lm/id144_25R_U.png']",arrowleft,1.0,0.0,005,25L,C,black,woman,"[1, 2]",144,"['00C', '25R']","['D', 'U']",black,woman,0.818903923034668,"[0.8262479305267334, 0.7941497564315796]",encoding,10,100117,0.0-7.0,5ffe6b8b773ec452c1d28adc,632233549dc26661ffa446b4,632236c1c40eeb677a79b69c,1.0,True,1.0,3ywjuoa2bgcqfcvotmhb,"9/14/2022, 4:19:54 PM",Chrome,main_task_5,chris,prolific_afc4,,"{'muct_id': '5', 'lighting': 'q', 'race_guess': 'b', 'gender_guess': 'w', 'quality': '3', 'quality_eyes': '3', 'quality_mouth': '3', 'quality_ears': '3', 'quality_hair': '3', 'quality_neck': '3', 'facial_hair': '0.0', 'notes': 'hat', 'race_common': 'black', 'gender_common': 'woman'}","{'muct_id': '214', 'lighting': 'u', 'race_guess': 'b', 'gender_guess': 'w', 'quality': '2', 'quality_eyes': '2', 'quality_mouth': '3', 'quality_ears': '3', 'quality_hair': '3', 'quality_neck': '3', 'facial_hair': '0.0', 'notes': None, 'race_common': 'black', 'gender_common': 'woman'}",,,,,,,,,,,,,,,,,,,,,,,,,,,,,,,,,,,,,,,,,,,,,,,,,,,,,,,,,
1106,6322376b9cb434415f3c17a7,3541,False,"['../stimuli/version1_gray_lm/id028_00C_C.png', '../stimuli/version1_gray_lm/id028_25R_U.png', '../stimuli/version1_gray_lm/id117_25L_D.png']",arrowdown,3.0,2.0,117,25L,D,black,man,"[0, 1]",028,"['00C', '25R']","['C', 'U']",black,man,0.8990145921707153,"[0.8093554973602295, 0.820701539516449]",encoding,84,224019,0.0-81.0,60fc3be8b7778559e151b9dc,632233549dc26661ffa446b5,63223683b3ebcc98e45e424d,3.0,True,38.0,bekm0cy9xqoaj3vlle58,"9/14/2022, 3:20:12 PM",Chrome,main_task_5,chris,prolific_afc4,,"{'muct_id': '417', 'lighting': 'w', 'race_guess': 'b', 'gender_guess': 'm', 'quality': '3', 'quality_eyes': '3', 'quality_mouth': '3', 'quality_ears': '3', 'quality_hair': '3', 'quality_neck': '3', 'facial_hair': '1.0', 'notes': 'mouth', 'race_common': 'black', 'gender_common': 'man'}","{'muct_id': '38', 'lighting': 'q', 'race_guess': 'b', 'gender_guess': 'm', 'quality': '3', 'quality_eyes': '3', 'quality_mouth': '3', 'quality_ears': '3', 'quality_hair': '3', 'quality_neck': '3', 'facial_hair': '2.0', 'notes': None, 'race_common': 'black', 'gender_common': 'man'}",,,,,,,,,,,,,,,,,,,,,,,,,,,,,,,,,,,,,,,,,,,,,,,,,,,,,,,,,
1107,6322376d9cb434415f3c17a8,3831,False,"['../stimuli/version1_gray_lm/id120_25L_U.png', '../stimuli/version1_gray_lm/id142_00C_D.png', '../stimuli/version1_gray_lm/id120_25R_C.png']",arrowright,2.0,1.0,142,00C,D,black,woman,"[0, 2]",120,"['25L', '25R']","['U', 'C']",black,woman,0.8331092596054077,"[0.7253760695457458, 0.815077006816864]",encoding,12,105148,0.0-9.0,5ffe6b8b773ec452c1d28adc,632233549dc26661ffa446b4,632236c1c40eeb677a79b69c,2.0,True,2.0,3ywjuoa2bgcqfcvotmhb,"9/14/2022, 4:19:59 PM",Chrome,main_task_5,chris,prolific_afc4,,"{'muct_id': '87', 'lighting': 'r', 'race_guess': 'b', 'gender_guess': 'w', 'quality': '3', 'quality_eyes': '3', 'quality_mouth': '3', 'quality_ears': '3', 'quality_hair': '3', 'quality_neck': '3', 'facial_hair': '0.0', 'notes': 'earrings hair', 'race_common': 'black', 'gender_common': 'woman'}","{'muct_id': '421', 'lighting': 'x', 'race_guess': 'b', 'gender_guess': 'w', 'quality': '3', 'quality_eyes': '3', 'quality_mouth': '3', 'quality_ears': '3', 'quality_hair': '3', 'quality_neck': '3', 'facial_hair': '0.0', 'notes': None, 'race_common': 'black', 'gender_common': 'woman'}",,,,,,,,,,,,,,,,,,,,,,,,,,,,,,,,,,,,,,,,,,,,,,,,,,,,,,,,,
1108,632237709cb434415f3c17a9,5216,False,"['../stimuli/version1_gray_lm/id111_25L_D.png', '../stimuli/version1_gray_lm/id016_25R_U.png', '../stimuli/version1_gray_lm/id111_00C_C.png']",arrowright,2.0,1.0,016,25R,U,black,woman,"[0, 2]",111,"['25L', '00C']","['D', 'C']",black,woman,0.7357763648033142,"[0.8722007870674133, 0.8803095817565918]",encoding,86,229693,0.0-83.0,60fc3be8b7778559e151b9dc,632233549dc26661ffa446b5,63223683b3ebcc98e45e424d,2.0,True,39.0,bekm0cy9xqoaj3vlle58,"9/14/2022, 3:20:18 PM",Chrome,main_task_5,chris,prolific_afc4,,"{'muct_id': '18', 'lighting': 'q', 'race_guess': 'b', 'gender_guess': 'w', 'quality': '3', 'quality_eyes': '3', 'quality_mouth': '3', 'quality_ears': '3', 'quality_hair': '3', 'quality_neck': '3', 'facial_hair': '0.0', 'notes': 'earrings', 'race_common': 'black', 'gender_common': 'woman'}","{'muct_id': '405', 'lighting': 'w', 'race_guess': 'b', 'gender_guess': 'w', 'quality': '3', 'quality_eyes': '3', 'quality_mouth': '3', 'quality_ears': '3', 'quality_hair': '3', 'quality_neck': '3', 'facial_hair': '0.0', 'notes': 'hair earrings', 'race_common': 'black', 'gender_common': 'woman'}",,,,,,,,,,,,,,,,,,,,,,,,,,,,,,,,,,,,,,,,,,,,,,,,,,,,,,,,,
1109,632237719cb434415f3c17aa,2128,False,"['../stimuli/version1_gray_lm/id007_00C_U.png', '../stimuli/version1_gray_lm/id109_25L_D.png', '../stimuli/version1_gray_lm/id007_25R_C.png']",arrowright,2.0,1.0,109,25L,D,white,woman,"[0, 2]",007,"['00C', '25R']","['U', 'C']",white,woman,0.8533809185028076,"[0.8305529356002808, 0.8445276618003845]",encoding,14,108284,0.0-11.0,5ffe6b8b773ec452c1d28adc,632233549dc26661ffa446b4,632236c1c40eeb677a79b69c,2.0,True,3.0,3ywjuoa2bgcqfcvotmhb,"9/14/2022, 4:20:02 PM",Chrome,main_task_5,chris,prolific_afc4,,"{'muct_id': '401', 'lighting': 'w', 'race_guess': 'w', 'gender_guess': 'w', 'quality': '3', 'quality_eyes': '3', 'quality_mouth': '3', 'quality_ears': '3', 'quality_hair': '3', 'quality_neck': '3', 'facial_hair': '0.0', 'notes': 'mouth', 'race_common': 'white', 'gender_common': 'woman'}","{'muct_id': '7', 'lighting': 's', 'race_guess': 'u', 'gender_guess': 'w', 'quality': '3', 'quality_eyes': '3', 'quality_mouth': '3', 'quality_ears': '3', 'quality_hair': '3', 'quality_neck': '3', 'facial_hair': '0.0', 'notes': None, 'race_common': 'white', 'gender_common': 'woman'}",,,,,,,,,,,,,,,,,,,,,,,,,,,,,,,,,,,,,,,,,,,,,,,,,,,,,,,,,
1110,632237739cb434415f3c17ab,1843,False,"['../stimuli/version1_gray_lm/id032_00C_D.png', '../stimuli/version1_gray_lm/id080_25L_C.png', '../stimuli/version1_gray_lm/id080_25R_U.png']",arrowleft,1.0,0.0,032,00C,D,white,man,"[1, 2]",080,"['25L', '25R']","['C', 'U']",white,man,0.8732470870018005,"[0.8826303482055664, 0.7978368997573853]",encoding,88,232048,0.0-85.0,60fc3be8b7778559e151b9dc,632233549dc26661ffa446b5,63223683b3ebcc98e45e424d,1.0,True,40.0,bekm0cy9xqoaj3vlle58,"9/14/2022, 3:20:20 PM",Chrome,main_task_5,chris,prolific_afc4,,"{'muct_id': '43', 'lighting': 'q', 'race_guess': 'w', 'gender_guess': 'm', 'quality': '3', 'quality_eyes': '3', 'quality_mouth': '3', 'quality_ears': '3', 'quality_hair': '3', 'quality_neck': '3', 'facial_hair': '0.0', 'notes': None, 'race_common': 'white', 'gender_common': 'man'}","{'muct_id': '240', 'lighting': 'u', 'race_guess': 'w', 'gender_guess': 'm', 'quality': '3', 'quality_eyes': '3', 'quality_mouth': '3', 'quality_ears': '3', 'quality_hair': '3', 'quality_neck': '3', 'facial_hair': '0.0', 'notes': 'mouth', 'race_common': 'white', 'gender_common': 'man'}",,,,,,,,,,,,,,,,,,,,,,,,,,,,,,,,,,,,,,,,,,,,,,,,,,,,,,,,,
1111,632237749cb434415f3c17ac,2174,False,"['../stimuli/version1_gray_lm/id123_25R_D.png', '../stimuli/version1_gray_lm/id018_25L_C.png', '../stimuli/version1_gray_lm/id123_00C_U.png']",arrowright,2.0,1.0,018,25L,C,white,woman,"[0, 2]",123,"['25R', '00C']","['D', 'U']",white,woman,0.7919492125511169,"[0.8543378710746765, 0.8018196225166321]",encoding,16,111223,0.0-13.0,5ffe6b8b773ec452c1d28adc,632233549dc26661ffa446b4,632236c1c40eeb677a79b69c,2.0,True,4.0,3ywjuoa2bgcqfcvotmhb,"9/14/2022, 4:20:05 PM",Chrome,main_task_5,chris,prolific_afc4,,"{'muct_id': '21', 'lighting': 'q', 'race_guess': 'w', 'gender_guess': 'w', 'quality': '3', 'quality_eyes': '3', 'quality_mouth': '3', 'quality_ears': '3', 'quality_hair': '3', 'quality_neck': '3', 'facial_hair': '0.0', 'notes': None, 'race_common': 'white', 'gender_common': 'woman'}","{'muct_id': '76', 'lighting': 'q', 'race_guess': 'w', 'gender_guess': 'w', 'quality': '2', 'quality_eyes': '2', 'quality_mouth': '3', 'quality_ears': '2', 'quality_hair': '2', 'quality_neck': '3', 'facial_hair': '0.0', 'notes': 'hair', 'race_common': 'white', 'gender_common': 'woman'}",,,,,,,,,,,,,,,,,,,,,,,,,,,,,,,,,,,,,,,,,,,,,,,,,,,,,,,,,
1112,632237789cb434415f3c17ad,4140,False,"['../stimuli/version1_gray_lm/id111_00C_U.png', '../stimuli/version1_gray_lm/id111_25L_D.png', '../stimuli/version1_gray_lm/id103_25R_C.png']",arrowdown,3.0,2.0,103,25R,C,black,woman,"[0, 1]",111,"['00C', '25L']","['U', 'D']",black,woman,0.7935617566108704,"[0.8701693415641785, 0.8722007870674133]",encoding,18,116067,0.0-15.0,5ffe6b8b773ec452c1d28adc,632233549dc26661ffa446b4,632236c1c40eeb677a79b69c,3.0,True,5.0,3ywjuoa2bgcqfcvotmhb,"9/14/2022, 4:20:10 PM",Chrome,main_task_5,chris,prolific_afc4,,"{'muct_id': '285', 'lighting': 'v', 'race_guess': 'b', 'gender_guess': 'w', 'quality': '3', 'quality_eyes': '3', 'quality_mouth': '3', 'quality_ears': '3', 'quality_hair': '3', 'quality_neck': '3', 'facial_hair': '0.0', 'notes': 'earrings', 'race_common': 'black', 'gender_common': 'woman'}","{'muct_id': '405', 'lighting': 'w', 'race_guess': 'b', 'gender_guess': 'w', 'quality': '3', 'quality_eyes': '3', 'quality_mouth': '3', 'quality_ears': '3', 'quality_hair': '3', 'quality_neck': '3', 'facial_hair': '0.0', 'notes': 'hair earrings', 'race_common': 'black', 'gender_common': 'woman'}",,,,,,,,,,,,,,,,,,,,,,,,,,,,,,,,,,,,,,,,,,,,,,,,,,,,,,,,,
1113,6322377a9cb434415f3c17ae,1457,False,"['../stimuli/version1_gray_lm/id086_25R_C.png', '../stimuli/version1_gray_lm/id086_00C_U.png', '../stimuli/version1_gray_lm/id132_25L_D.png']",arrowdown,3.0,2.0,132,25L,D,black,man,"[0, 1]",086,"['25R', '00C']","['C', 'U']",black,man,0.8537462949752808,"[0.8103699684143066, 0.8033007383346558]",encoding,12,146208,0.0-7.0,5c005838232b6c0001221acf,632233549dc26661ffa446b5,632236e172e92fa01859b2a5,3.0,True,1.0,dd6gu4wm7h6h7koncy4d,"9/14/2022, 3:20:12 PM",Chrome,main_task_5,chris,prolific_afc4,,"{'muct_id': '450', 'lighting': 'w', 'race_guess': 'b', 'gender_guess': 'm', 'quality': '3', 'quality_eyes': '3', 'quality_mouth': '3', 'quality_ears': '3', 'quality_hair': '3', 'quality_neck': '3', 'facial_hair': '4.0', 'notes': 'mouth', 'race_common': 'black', 'gender_common': 'man'}","{'muct_id': '250', 'lighting': 't', 'race_guess': 'b', 'gender_guess': 'm', 'quality': '3', 'quality_eyes': '3', 'quality_mouth': '3', 'quality_ears': '3', 'quality_hair': '3', 'quality_neck': '3', 'facial_hair': '1.0', 'notes': None, 'race_common': 'black', 'gender_common': 'man'}",,,,,,,,,,,,,,,,,,,,,,,,,,,,,,,,,,,,,,,,,,,,,,,,,,,,,,,,,
1114,6322377b9cb434415f3c17af,2021,False,"['../stimuli/version1_gray_lm/id001_00C_U.png', '../stimuli/version1_gray_lm/id086_25L_D.png', '../stimuli/version1_gray_lm/id086_25R_C.png']",arrowleft,1.0,0.0,001,00C,U,black,man,"[1, 2]",086,"['25L', '25R']","['D', 'C']",black,man,0.7931580543518066,"[0.8569296002388, 0.8103699684143066]",encoding,20,118745,0.0-17.0,5ffe6b8b773ec452c1d28adc,632233549dc26661ffa446b4,632236c1c40eeb677a79b69c,1.0,True,6.0,3ywjuoa2bgcqfcvotmhb,"9/14/2022, 4:20:12 PM",Chrome,main_task_5,chris,prolific_afc4,,"{'muct_id': '1', 'lighting': 'q', 'race_guess': 'b', 'gender_guess': 'm', 'quality': '3', 'quality_eyes': '3', 'quality_mouth': '3', 'quality_ears': '3', 'quality_hair': '3', 'quality_neck': '3', 'facial_hair': '1.0', 'notes': None, 'race_common': 'black', 'gender_common': 'man'}","{'muct_id': '250', 'lighting': 't', 'race_guess': 'b', 'gender_guess': 'm', 'quality': '3', 'quality_eyes': '3', 'quality_mouth': '3', 'quality_ears': '3', 'quality_hair': '3', 'quality_neck': '3', 'facial_hair': '1.0', 'notes': None, 'race_common': 'black', 'gender_common': 'man'}",,,,,,,,,,,,,,,,,,,,,,,,,,,,,,,,,,,,,,,,,,,,,,,,,,,,,,,,,
1115,6322377e9cb434415f3c17b0,2046,False,"['../stimuli/version1_gray_lm/id153_25R_D.png', '../stimuli/version1_gray_lm/id141_00C_U.png', '../stimuli/version1_gray_lm/id153_25L_C.png']",arrowright,2.0,1.0,141,00C,U,white,woman,"[0, 2]",153,"['25R', '25L']","['D', 'C']",white,woman,0.8290002346038818,"[0.8690426349639893, 0.7999976873397827]",encoding,22,121494,0.0-19.0,5ffe6b8b773ec452c1d28adc,632233549dc26661ffa446b4,632236c1c40eeb677a79b69c,2.0,True,7.0,3ywjuoa2bgcqfcvotmhb,"9/14/2022, 4:20:15 PM",Chrome,main_task_5,chris,prolific_afc4,,"{'muct_id': '77', 'lighting': 's', 'race_guess': 'w', 'gender_guess': 'w', 'quality': '3', 'quality_eyes': '3', 'quality_mouth': '3', 'quality_ears': '3', 'quality_hair': '3', 'quality_neck': '3', 'facial_hair': '0.0', 'notes': None, 'race_common': 'white', 'gender_common': 'woman'}","{'muct_id': '437', 'lighting': 'x', 'race_guess': 'w', 'gender_guess': 'w', 'quality': '3', 'quality_eyes': '3', 'quality_mouth': '3', 'quality_ears': '3', 'quality_hair': '3', 'quality_neck': '3', 'facial_hair': '0.0', 'notes': 'hair', 'race_common': 'white', 'gender_common': 'woman'}",,,,,,,,,,,,,,,,,,,,,,,,,,,,,,,,,,,,,,,,,,,,,,,,,,,,,,,,,
1116,632237819cb434415f3c17b1,2417,False,"['../stimuli/version1_gray_lm/id125_25L_D.png', '../stimuli/version1_gray_lm/id148_00C_C.png', '../stimuli/version1_gray_lm/id125_25R_U.png']",arrowright,2.0,1.0,148,00C,C,white,woman,"[0, 2]",125,"['25L', '25R']","['D', 'U']",white,woman,0.9111868143081665,"[0.8705277442932129, 0.8316860198974609]",encoding,24,124519,0.0-21.0,5ffe6b8b773ec452c1d28adc,632233549dc26661ffa446b4,632236c1c40eeb677a79b69c,2.0,True,8.0,3ywjuoa2bgcqfcvotmhb,"9/14/2022, 4:20:18 PM",Chrome,main_task_5,chris,prolific_afc4,,"{'muct_id': '415', 'lighting': 'w', 'race_guess': 'w', 'gender_guess': 'w', 'quality': '3', 'quality_eyes': '3', 'quality_mouth': '3', 'quality_ears': '3', 'quality_hair': '3', 'quality_neck': '3', 'facial_hair': '0.0', 'notes': None, 'race_common': 'white', 'gender_common': 'woman'}","{'muct_id': '433', 'lighting': 'x', 'race_guess': 'w', 'gender_guess': 'w', 'quality': '3', 'quality_eyes': '3', 'quality_mouth': '3', 'quality_ears': '3', 'quality_hair': '3', 'quality_neck': '3', 'facial_hair': '0.0', 'notes': None, 'race_common': 'white', 'gender_common': 'woman'}",,,,,,,,,,,,,,,,,,,,,,,,,,,,,,,,,,,,,,,,,,,,,,,,,,,,,,,,,
1117,632237819cb434415f3c17b2,4490,False,"['../stimuli/version1_gray_lm/id090_25L_D.png', '../stimuli/version1_gray_lm/id117_00C_C.png', '../stimuli/version1_gray_lm/id090_25R_U.png']",arrowright,2.0,1.0,117,00C,C,black,man,"[0, 2]",090,"['25L', '25R']","['D', 'U']",black,man,0.8551556468009949,"[0.8555980324745178, 0.7921282649040222]",encoding,14,153080,0.0-9.0,5c005838232b6c0001221acf,632233549dc26661ffa446b5,632236e172e92fa01859b2a5,2.0,True,2.0,dd6gu4wm7h6h7koncy4d,"9/14/2022, 3:20:19 PM",Chrome,main_task_5,chris,prolific_afc4,,"{'muct_id': '417', 'lighting': 'w', 'race_guess': 'b', 'gender_guess': 'm', 'quality': '3', 'quality_eyes': '3', 'quality_mouth': '3', 'quality_ears': '3', 'quality_hair': '3', 'quality_neck': '3', 'facial_hair': '1.0', 'notes': 'mouth', 'race_common': 'black', 'gender_common': 'man'}","{'muct_id': '259', 'lighting': 'v', 'race_guess': 'b', 'gender_guess': 'm', 'quality': '3', 'quality_eyes': '3', 'quality_mouth': '3', 'quality_ears': '3', 'quality_hair': '3', 'quality_neck': '3', 'facial_hair': '2.0', 'notes': None, 'race_common': 'black', 'gender_common': 'man'}",,,,,,,,,,,,,,,,,,,,,,,,,,,,,,,,,,,,,,,,,,,,,,,,,,,,,,,,,
1118,632237869cb434415f3c17b3,4230,False,"['../stimuli/version1_gray_lm/id091_25R_C.png', '../stimuli/version1_gray_lm/id056_25L_D.png', '../stimuli/version1_gray_lm/id056_00C_U.png']",arrowleft,1.0,0.0,091,25R,C,black,man,"[1, 2]",056,"['25L', '00C']","['D', 'U']",black,man,0.8275799751281738,"[0.8538694381713867, 0.8133549094200134]",encoding,26,129304,0.0-23.0,5ffe6b8b773ec452c1d28adc,632233549dc26661ffa446b4,632236c1c40eeb677a79b69c,1.0,True,9.0,3ywjuoa2bgcqfcvotmhb,"9/14/2022, 4:20:23 PM",Chrome,main_task_5,chris,prolific_afc4,,"{'muct_id': '260', 'lighting': 't', 'race_guess': 'b', 'gender_guess': 'm', 'quality': '3', 'quality_eyes': '3', 'quality_mouth': '3', 'quality_ears': '3', 'quality_hair': '3', 'quality_neck': '3', 'facial_hair': '4.0', 'notes': 'beard', 'race_common': 'black', 'gender_common': 'man'}","{'muct_id': '82', 'lighting': 'q', 'race_guess': 'b', 'gender_guess': 'm', 'quality': '3', 'quality_eyes': '3', 'quality_mouth': '3', 'quality_ears': '3', 'quality_hair': '3', 'quality_neck': '3', 'facial_hair': '1.0', 'notes': None, 'race_common': 'black', 'gender_common': 'man'}",,,,,,,,,,,,,,,,,,,,,,,,,,,,,,,,,,,,,,,,,,,,,,,,,,,,,,,,,
1119,632237879cb434415f3c17b4,2048,False,"['../stimuli/version1_gray_lm/id037_00C_U.png', '../stimuli/version1_gray_lm/id094_25R_C.png', '../stimuli/version1_gray_lm/id094_25L_D.png']",arrowleft,1.0,0.0,037,00C,U,white,man,"[1, 2]",094,"['25R', '25L']","['C', 'D']",white,man,0.8513078689575195,"[0.80197674036026, 0.8378531336784363]",encoding,16,158712,0.0-11.0,5c005838232b6c0001221acf,632233549dc26661ffa446b5,632236e172e92fa01859b2a5,1.0,True,3.0,dd6gu4wm7h6h7koncy4d,"9/14/2022, 3:20:25 PM",Chrome,main_task_5,chris,prolific_afc4,,"{'muct_id': '48', 'lighting': 'w', 'race_guess': 'w', 'gender_guess': 'm', 'quality': '3', 'quality_eyes': '3', 'quality_mouth': '3', 'quality_ears': '3', 'quality_hair': '3', 'quality_neck': '3', 'facial_hair': '0.0', 'notes': None, 'race_common': 'white', 'gender_common': 'man'}","{'muct_id': '264', 'lighting': 't', 'race_guess': 'w', 'gender_guess': 'm', 'quality': '3', 'quality_eyes': '3', 'quality_mouth': '3', 'quality_ears': '3', 'quality_hair': '3', 'quality_neck': '3', 'facial_hair': '0.0', 'notes': None, 'race_common': 'white', 'gender_common': 'man'}",,,,,,,,,,,,,,,,,,,,,,,,,,,,,,,,,,,,,,,,,,,,,,,,,,,,,,,,,
1120,632237899cb434415f3c17b5,2336,False,"['../stimuli/version1_gray_lm/id102_25L_U.png', '../stimuli/version1_gray_lm/id029_00C_C.png', '../stimuli/version1_gray_lm/id029_25R_D.png']",arrowleft,1.0,0.0,102,25L,U,white,woman,"[1, 2]",029,"['00C', '25R']","['C', 'D']",white,woman,0.7710289359092712,"[0.823814868927002, 0.8330068588256836]",encoding,28,132211,0.0-25.0,5ffe6b8b773ec452c1d28adc,632233549dc26661ffa446b4,632236c1c40eeb677a79b69c,1.0,True,10.0,3ywjuoa2bgcqfcvotmhb,"9/14/2022, 4:20:26 PM",Chrome,main_task_5,chris,prolific_afc4,,"{'muct_id': '283', 'lighting': 't', 'race_guess': 'i', 'gender_guess': 'w', 'quality': '3', 'quality_eyes': '3', 'quality_mouth': '3', 'quality_ears': '3', 'quality_hair': '3', 'quality_neck': '3', 'facial_hair': '0.0', 'notes': 'pottu', 'race_common': 'white', 'gender_common': 'woman'}","{'muct_id': '39', 'lighting': 'r', 'race_guess': 'w', 'gender_guess': 'w', 'quality': '3', 'quality_eyes': '3', 'quality_mouth': '3', 'quality_ears': '3', 'quality_hair': '3', 'quality_neck': '3', 'facial_hair': '0.0', 'notes': 'earrings hair', 'race_common': 'white', 'gender_common': 'woman'}",,,,,,,,,,,,,,,,,,,,,,,,,,,,,,,,,,,,,,,,,,,,,,,,,,,,,,,,,
1121,6322378e9cb434415f3c17b6,4482,False,"['../stimuli/version1_gray_lm/id099_25L_D.png', '../stimuli/version1_gray_lm/id099_00C_U.png', '../stimuli/version1_gray_lm/id146_25R_C.png']",arrowdown,3.0,2.0,146,25R,C,white,man,"[0, 1]",099,"['25L', '00C']","['D', 'U']",white,man,0.8372709155082703,"[0.8469396829605103, 0.8130140900611877]",encoding,30,137328,0.0-27.0,5ffe6b8b773ec452c1d28adc,632233549dc26661ffa446b4,632236c1c40eeb677a79b69c,3.0,True,11.0,3ywjuoa2bgcqfcvotmhb,"9/14/2022, 4:20:31 PM",Chrome,main_task_5,chris,prolific_afc4,,"{'muct_id': '254', 'lighting': 'v', 'race_guess': 'w', 'gender_guess': 'm', 'quality': '2', 'quality_eyes': '2', 'quality_mouth': '3', 'quality_ears': '3', 'quality_hair': '2', 'quality_neck': '3', 'facial_hair': '0.0', 'notes': 'hair', 'race_common': 'white', 'gender_common': 'man'}","{'muct_id': '278', 'lighting': 't', 'race_guess': 'w', 'gender_guess': 'm', 'quality': '3', 'quality_eyes': '3', 'quality_mouth': '3', 'quality_ears': '3', 'quality_hair': '3', 'quality_neck': '3', 'facial_hair': '0.0', 'notes': None, 'race_common': 'white', 'gender_common': 'man'}",,,,,,,,,,,,,,,,,,,,,,,,,,,,,,,,,,,,,,,,,,,,,,,,,,,,,,,,,
1122,6322378e9cb434415f3c17b7,26958,,"<p style='font-size: 150%'><b>You have finished Part 1!</b></p><p>Nice job! On this section, you averaged <b>88% accuracy</b>.</p><p>You're on track to earn a good bonus. Keep up the good work!</p><p>Click 'Next' to continue to Part 2.</p>",,,,,,,,,,,,,,,,,bonus_update,90,259499,0.0-87.0,60fc3be8b7778559e151b9dc,632233549dc26661ffa446b5,63223683b3ebcc98e45e424d,,,,bekm0cy9xqoaj3vlle58,"9/14/2022, 3:20:47 PM",Chrome,main_task_5,chris,prolific_afc4,,,,,encoding,2.55,,,,,,,,,,,,,,,,,,,,,,,,,,,,,,,,0,,,,,,,,,,,,,,,,,,,,,,
1123,632237909cb434415f3c17b8,1965,False,"['../stimuli/version1_gray_lm/id112_00C_U.png', '../stimuli/version1_gray_lm/id132_25R_D.png', '../stimuli/version1_gray_lm/id132_25L_C.png']",arrowleft,1.0,0.0,112,00C,U,black,man,"[1, 2]",132,"['25R', '25L']","['D', 'C']",black,man,0.7495073676109314,"[0.8125796914100647, 0.8329433798789978]",encoding,32,139810,0.0-29.0,5ffe6b8b773ec452c1d28adc,632233549dc26661ffa446b4,632236c1c40eeb677a79b69c,1.0,True,12.0,3ywjuoa2bgcqfcvotmhb,"9/14/2022, 4:20:33 PM",Chrome,main_task_5,chris,prolific_afc4,,"{'muct_id': '406', 'lighting': 'w', 'race_guess': 'b', 'gender_guess': 'm', 'quality': '3', 'quality_eyes': '3', 'quality_mouth': '3', 'quality_ears': '3', 'quality_hair': '3', 'quality_neck': '3', 'facial_hair': '1.0', 'notes': None, 'race_common': 'black', 'gender_common': 'man'}","{'muct_id': '450', 'lighting': 'w', 'race_guess': 'b', 'gender_guess': 'm', 'quality': '3', 'quality_eyes': '3', 'quality_mouth': '3', 'quality_ears': '3', 'quality_hair': '3', 'quality_neck': '3', 'facial_hair': '4.0', 'notes': 'mouth', 'race_common': 'black', 'gender_common': 'man'}",,,,,,,,,,,,,,,,,,,,,,,,,,,,,,,,,,,,,,,,,,,,,,,,,,,,,,,,,
1124,632237919cb434415f3c17b9,8485,False,"['../stimuli/version1_gray_lm/id073_00C_C.png', '../stimuli/version1_gray_lm/id002_25L_D.png', '../stimuli/version1_gray_lm/id073_25R_U.png']",arrowright,2.0,1.0,002,25L,D,white,man,"[0, 2]",073,"['00C', '25R']","['C', 'U']",white,man,0.8685739040374756,"[0.8617779016494751, 0.8360046744346619]",encoding,18,169344,0.0-13.0,5c005838232b6c0001221acf,632233549dc26661ffa446b5,632236e172e92fa01859b2a5,2.0,True,4.0,dd6gu4wm7h6h7koncy4d,"9/14/2022, 3:20:35 PM",Chrome,main_task_5,chris,prolific_afc4,,"{'muct_id': '2', 'lighting': 'r', 'race_guess': 'w', 'gender_guess': 'm', 'quality': '3', 'quality_eyes': '3', 'quality_mouth': '3', 'quality_ears': '3', 'quality_hair': '3', 'quality_neck': '3', 'facial_hair': '2.0', 'notes': 'eyes', 'race_common': 'white', 'gender_common': 'man'}","{'muct_id': '225', 'lighting': 'u', 'race_guess': 'w', 'gender_guess': 'm', 'quality': '3', 'quality_eyes': '3', 'quality_mouth': '3', 'quality_ears': '3', 'quality_hair': '3', 'quality_neck': '3', 'facial_hair': '2.0', 'notes': None, 'race_common': 'white', 'gender_common': 'man'}",,,,,,,,,,,,,,,,,,,,,,,,,,,,,,,,,,,,,,,,,,,,,,,,,,,,,,,,,
1125,632237939cb434415f3c17ba,2348,False,"['../stimuli/version1_gray_lm/id057_25L_D.png', '../stimuli/version1_gray_lm/id057_25R_U.png', '../stimuli/version1_gray_lm/id040_00C_C.png']",arrowdown,3.0,2.0,040,00C,C,black,man,"[0, 1]",057,"['25L', '25R']","['D', 'U']",black,man,0.8272554278373718,"[0.8089656233787537, 0.8160683512687683]",encoding,34,142758,0.0-31.0,5ffe6b8b773ec452c1d28adc,632233549dc26661ffa446b4,632236c1c40eeb677a79b69c,3.0,True,13.0,3ywjuoa2bgcqfcvotmhb,"9/14/2022, 4:20:36 PM",Chrome,main_task_5,chris,prolific_afc4,,"{'muct_id': '55', 'lighting': 'r', 'race_guess': 'b', 'gender_guess': 'm', 'quality': '3', 'quality_eyes': '3', 'quality_mouth': '3', 'quality_ears': '3', 'quality_hair': '3', 'quality_neck': '3', 'facial_hair': '3.0', 'notes': 'beard', 'race_common': 'black', 'gender_common': 'man'}","{'muct_id': '83', 'lighting': 'r', 'race_guess': 'b', 'gender_guess': 'm', 'quality': '3', 'quality_eyes': '3', 'quality_mouth': '3', 'quality_ears': '3', 'quality_hair': '3', 'quality_neck': '3', 'facial_hair': '3.0', 'notes': None, 'race_common': 'black', 'gender_common': 'man'}",,,,,,,,,,,,,,,,,,,,,,,,,,,,,,,,,,,,,,,,,,,,,,,,,,,,,,,,,
1126,632237979cb434415f3c17bb,3090,False,"['../stimuli/version1_gray_lm/id143_25L_U.png', '../stimuli/version1_gray_lm/id061_25R_D.png', '../stimuli/version1_gray_lm/id143_00C_C.png']",arrowright,2.0,1.0,061,25R,D,white,man,"[0, 2]",143,"['25L', '00C']","['U', 'C']",white,man,0.8583770990371704,"[0.8404833674430847, 0.8794283866882324]",encoding,36,146437,0.0-33.0,5ffe6b8b773ec452c1d28adc,632233549dc26661ffa446b4,632236c1c40eeb677a79b69c,2.0,True,14.0,3ywjuoa2bgcqfcvotmhb,"9/14/2022, 4:20:40 PM",Chrome,main_task_5,chris,prolific_afc4,,"{'muct_id': '89', 'lighting': 'r', 'race_guess': 'w', 'gender_guess': 'm', 'quality': '3', 'quality_eyes': '3', 'quality_mouth': '3', 'quality_ears': '3', 'quality_hair': '3', 'quality_neck': '3', 'facial_hair': '2.0', 'notes': None, 'race_common': 'white', 'gender_common': 'man'}","{'muct_id': '90', 'lighting': 'q', 'race_guess': 'u', 'gender_guess': 'm', 'quality': '2', 'quality_eyes': '3', 'quality_mouth': '3', 'quality_ears': '2', 'quality_hair': '3', 'quality_neck': '3', 'facial_hair': '4.0', 'notes': 'beard', 'race_common': 'white', 'gender_common': 'man'}",,,,,,,,,,,,,,,,,,,,,,,,,,,,,,,,,,,,,,,,,,,,,,,,,,,,,,,,,
1127,632237999cb434415f3c17bc,1903,False,"['../stimuli/version1_gray_lm/id064_25R_D.png', '../stimuli/version1_gray_lm/id139_00C_U.png', '../stimuli/version1_gray_lm/id064_25L_C.png']",arrowright,2.0,1.0,139,00C,U,black,man,"[0, 2]",064,"['25R', '25L']","['D', 'C']",black,man,0.8302584886550903,"[0.8336070775985718, 0.8300010561943054]",encoding,38,148960,0.0-35.0,5ffe6b8b773ec452c1d28adc,632233549dc26661ffa446b4,632236c1c40eeb677a79b69c,2.0,True,15.0,3ywjuoa2bgcqfcvotmhb,"9/14/2022, 4:20:43 PM",Chrome,main_task_5,chris,prolific_afc4,,"{'muct_id': '623', 'lighting': 'y', 'race_guess': 'b', 'gender_guess': 'm', 'quality': '3', 'quality_eyes': '3', 'quality_mouth': '3', 'quality_ears': '3', 'quality_hair': '3', 'quality_neck': '3', 'facial_hair': '1.0', 'notes': 'mouth', 'race_common': 'black', 'gender_common': 'man'}","{'muct_id': '204', 'lighting': 't', 'race_guess': 'b', 'gender_guess': 'm', 'quality': '3', 'quality_eyes': '3', 'quality_mouth': '3', 'quality_ears': '3', 'quality_hair': '3', 'quality_neck': '3', 'facial_hair': '1.0', 'notes': None, 'race_common': 'black', 'gender_common': 'man'}",,,,,,,,,,,,,,,,,,,,,,,,,,,,,,,,,,,,,,,,,,,,,,,,,,,,,,,,,
1128,6322379c9cb434415f3c17bd,2210,False,"['../stimuli/version1_gray_lm/id051_25R_U.png', '../stimuli/version1_gray_lm/id051_25L_D.png', '../stimuli/version1_gray_lm/id017_00C_C.png']",arrowdown,3.0,2.0,017,00C,C,white,woman,"[0, 1]",051,"['25R', '25L']","['U', 'D']",white,woman,0.8016844391822815,"[0.8376296758651733, 0.8554887771606445]",encoding,40,151772,0.0-37.0,5ffe6b8b773ec452c1d28adc,632233549dc26661ffa446b4,632236c1c40eeb677a79b69c,3.0,True,16.0,3ywjuoa2bgcqfcvotmhb,"9/14/2022, 4:20:45 PM",Chrome,main_task_5,chris,prolific_afc4,,"{'muct_id': '19', 'lighting': 'r', 'race_guess': 'w', 'gender_guess': 'w', 'quality': '3', 'quality_eyes': '3', 'quality_mouth': '3', 'quality_ears': '3', 'quality_hair': '3', 'quality_neck': '3', 'facial_hair': '0.0', 'notes': None, 'race_common': 'white', 'gender_common': 'woman'}","{'muct_id': '74', 'lighting': 'q', 'race_guess': 'w', 'gender_guess': 'w', 'quality': '3', 'quality_eyes': '3', 'quality_mouth': '3', 'quality_ears': '3', 'quality_hair': '3', 'quality_neck': '3', 'facial_hair': '0.0', 'notes': None, 'race_common': 'white', 'gender_common': 'woman'}",,,,,,,,,,,,,,,,,,,,,,,,,,,,,,,,,,,,,,,,,,,,,,,,,,,,,,,,,
1129,6322379d9cb434415f3c17be,0,True,"['../stimuli/version1_gray_lm/id004_25R_D.png', '../stimuli/version1_gray_lm/id004_25L_U.png', '../stimuli/version1_gray_lm/id112_00C_C.png']",,3.0,2.0,112,00C,C,black,man,"[0, 1]",004,"['25R', '25L']","['D', 'U']",black,man,0.8413169384002686,"[0.8541693687438965, 0.8474189043045044]",encoding,20,180889,0.0-15.0,5c005838232b6c0001221acf,632233549dc26661ffa446b5,632236e172e92fa01859b2a5,,False,5.0,dd6gu4wm7h6h7koncy4d,"9/14/2022, 3:20:47 PM",Chrome,main_task_5,chris,prolific_afc4,,"{'muct_id': '406', 'lighting': 'w', 'race_guess': 'b', 'gender_guess': 'm', 'quality': '3', 'quality_eyes': '3', 'quality_mouth': '3', 'quality_ears': '3', 'quality_hair': '3', 'quality_neck': '3', 'facial_hair': '1.0', 'notes': None, 'race_common': 'black', 'gender_common': 'man'}","{'muct_id': '4', 'lighting': 'q', 'race_guess': 'b', 'gender_guess': 'm', 'quality': '3', 'quality_eyes': '3', 'quality_mouth': '3', 'quality_ears': '3', 'quality_hair': '3', 'quality_neck': '3', 'facial_hair': '2.0', 'notes': None, 'race_common': 'black', 'gender_common': 'man'}",,,,,,,,,,,,,,,,,,,,,,,,,,,,,,,,,,,,,,,,,,,,,,,,,,,,,,,,,
1130,632237a19cb434415f3c17bf,2008,False,"['../stimuli/version1_gray_lm/id088_00C_U.png', '../stimuli/version1_gray_lm/id153_25L_C.png', '../stimuli/version1_gray_lm/id153_25R_D.png']",arrowleft,1.0,0.0,088,00C,U,white,woman,"[1, 2]",153,"['25L', '25R']","['C', 'D']",white,woman,0.8910120725631714,"[0.7999976873397827, 0.8690426349639893]",encoding,22,184719,0.0-17.0,5c005838232b6c0001221acf,632233549dc26661ffa446b5,632236e172e92fa01859b2a5,1.0,True,6.0,dd6gu4wm7h6h7koncy4d,"9/14/2022, 3:20:51 PM",Chrome,main_task_5,chris,prolific_afc4,,"{'muct_id': '252', 'lighting': 't', 'race_guess': 'w', 'gender_guess': 'w', 'quality': '3', 'quality_eyes': '3', 'quality_mouth': '3', 'quality_ears': '3', 'quality_hair': '3', 'quality_neck': '3', 'facial_hair': '0.0', 'notes': 'hair', 'race_common': 'white', 'gender_common': 'woman'}","{'muct_id': '437', 'lighting': 'x', 'race_guess': 'w', 'gender_guess': 'w', 'quality': '3', 'quality_eyes': '3', 'quality_mouth': '3', 'quality_ears': '3', 'quality_hair': '3', 'quality_neck': '3', 'facial_hair': '0.0', 'notes': 'hair', 'race_common': 'white', 'gender_common': 'woman'}",,,,,,,,,,,,,,,,,,,,,,,,,,,,,,,,,,,,,,,,,,,,,,,,,,,,,,,,,
1131,632237a29cb434415f3c17c0,5136,False,"['../stimuli/version1_gray_lm/id126_25L_U.png', '../stimuli/version1_gray_lm/id020_00C_C.png', '../stimuli/version1_gray_lm/id126_25R_D.png']",arrowright,2.0,1.0,020,00C,C,black,woman,"[0, 2]",126,"['25L', '25R']","['U', 'D']",black,woman,0.8305983543395996,"[0.7722323536872864, 0.8370853662490845]",encoding,42,157500,0.0-39.0,5ffe6b8b773ec452c1d28adc,632233549dc26661ffa446b4,632236c1c40eeb677a79b69c,2.0,True,17.0,3ywjuoa2bgcqfcvotmhb,"9/14/2022, 4:20:51 PM",Chrome,main_task_5,chris,prolific_afc4,,"{'muct_id': '24', 'lighting': 'q', 'race_guess': 'b', 'gender_guess': 'w', 'quality': '3', 'quality_eyes': '3', 'quality_mouth': '3', 'quality_ears': '3', 'quality_hair': '3', 'quality_neck': '3', 'facial_hair': '0.0', 'notes': None, 'race_common': 'black', 'gender_common': 'woman'}","{'muct_id': '434', 'lighting': 'w', 'race_guess': 'b', 'gender_guess': 'w', 'quality': '3', 'quality_eyes': '3', 'quality_mouth': '3', 'quality_ears': '3', 'quality_hair': '3', 'quality_neck': '3', 'facial_hair': '0.0', 'notes': 'earrings', 'race_common': 'black', 'gender_common': 'woman'}",,,,,,,,,,,,,,,,,,,,,,,,,,,,,,,,,,,,,,,,,,,,,,,,,,,,,,,,,
1132,632237a49cb434415f3c17c1,2053,False,"['../stimuli/version1_gray_lm/id119_25R_C.png', '../stimuli/version1_gray_lm/id119_25L_U.png', '../stimuli/version1_gray_lm/id085_00C_D.png']",arrowdown,3.0,2.0,085,00C,D,black,man,"[0, 1]",119,"['25R', '25L']","['C', 'U']",black,man,0.839368462562561,"[0.8093804717063904, 0.7902446389198303]",encoding,24,188215,0.0-19.0,5c005838232b6c0001221acf,632233549dc26661ffa446b5,632236e172e92fa01859b2a5,3.0,True,7.0,dd6gu4wm7h6h7koncy4d,"9/14/2022, 3:20:54 PM",Chrome,main_task_5,chris,prolific_afc4,,"{'muct_id': '249', 'lighting': 't', 'race_guess': 'b', 'gender_guess': 'w', 'quality': '2', 'quality_eyes': '2', 'quality_mouth': '3', 'quality_ears': '3', 'quality_hair': '3', 'quality_neck': '3', 'facial_hair': '0.0', 'notes': None, 'race_common': 'black', 'gender_common': 'man'}","{'muct_id': '420', 'lighting': 'w', 'race_guess': 'b', 'gender_guess': 'm', 'quality': '3', 'quality_eyes': '3', 'quality_mouth': '3', 'quality_ears': '3', 'quality_hair': '3', 'quality_neck': '3', 'facial_hair': '0.0', 'notes': None, 'race_common': 'black', 'gender_common': 'man'}",,,,,,,,,,,,,,,,,,,,,,,,,,,,,,,,,,,,,,,,,,,,,,,,,,,,,,,,,
1133,632237a59cb434415f3c17c2,2804,False,"['../stimuli/version1_gray_lm/id092_25R_D.png', '../stimuli/version1_gray_lm/id039_00C_C.png', '../stimuli/version1_gray_lm/id039_25L_U.png']",arrowleft,1.0,0.0,092,25R,D,white,man,"[1, 2]",039,"['00C', '25L']","['C', 'U']",white,man,0.7873934507369995,"[0.8469932675361633, 0.8038492798805237]",encoding,44,160862,0.0-41.0,5ffe6b8b773ec452c1d28adc,632233549dc26661ffa446b4,632236c1c40eeb677a79b69c,1.0,True,18.0,3ywjuoa2bgcqfcvotmhb,"9/14/2022, 4:20:54 PM",Chrome,main_task_5,chris,prolific_afc4,,"{'muct_id': '261', 'lighting': 'v', 'race_guess': 'w', 'gender_guess': 'm', 'quality': '2', 'quality_eyes': '2', 'quality_mouth': '3', 'quality_ears': '3', 'quality_hair': '3', 'quality_neck': '3', 'facial_hair': '0.0', 'notes': None, 'race_common': 'white', 'gender_common': 'man'}","{'muct_id': '52', 'lighting': 'q', 'race_guess': 'w', 'gender_guess': 'm', 'quality': '3', 'quality_eyes': '3', 'quality_mouth': '3', 'quality_ears': '3', 'quality_hair': '3', 'quality_neck': '3', 'facial_hair': '0.0', 'notes': None, 'race_common': 'white', 'gender_common': 'man'}",,,,,,,,,,,,,,,,,,,,,,,,,,,,,,,,,,,,,,,,,,,,,,,,,,,,,,,,,
1134,632237a89cb434415f3c17c3,2462,False,"['../stimuli/version1_gray_lm/id149_25R_C.png', '../stimuli/version1_gray_lm/id012_00C_D.png', '../stimuli/version1_gray_lm/id149_25L_U.png']",arrowright,2.0,1.0,012,00C,D,white,man,"[0, 2]",149,"['25R', '25L']","['C', 'U']",white,man,0.8630152940750122,"[0.7760299444198608, 0.7955148816108704]",encoding,26,192097,0.0-21.0,5c005838232b6c0001221acf,632233549dc26661ffa446b5,632236e172e92fa01859b2a5,2.0,True,8.0,dd6gu4wm7h6h7koncy4d,"9/14/2022, 3:20:58 PM",Chrome,main_task_5,chris,prolific_afc4,,"{'muct_id': '12', 'lighting': 'q', 'race_guess': 'i', 'gender_guess': 'm', 'quality': '3', 'quality_eyes': '3', 'quality_mouth': '3', 'quality_ears': '3', 'quality_hair': '3', 'quality_neck': '3', 'facial_hair': '2.0', 'notes': None, 'race_common': 'white', 'gender_common': 'man'}","{'muct_id': '416', 'lighting': 'w', 'race_guess': 'w', 'gender_guess': 'm', 'quality': '3', 'quality_eyes': '3', 'quality_mouth': '3', 'quality_ears': '3', 'quality_hair': '3', 'quality_neck': '3', 'facial_hair': '2.0', 'notes': None, 'race_common': 'white', 'gender_common': 'man'}",,,,,,,,,,,,,,,,,,,,,,,,,,,,,,,,,,,,,,,,,,,,,,,,,,,,,,,,,
1135,632237aa9cb434415f3c17c4,4373,False,"['../stimuli/version1_gray_lm/id152_25L_U.png', '../stimuli/version1_gray_lm/id084_00C_D.png', '../stimuli/version1_gray_lm/id152_25R_C.png']",arrowright,2.0,1.0,084,00C,D,white,woman,"[0, 2]",152,"['25L', '25R']","['U', 'C']",white,woman,0.8690771460533142,"[0.8561945557594299, 0.8097773194313049]",encoding,46,165773,0.0-43.0,5ffe6b8b773ec452c1d28adc,632233549dc26661ffa446b4,632236c1c40eeb677a79b69c,2.0,True,19.0,3ywjuoa2bgcqfcvotmhb,"9/14/2022, 4:20:59 PM",Chrome,main_task_5,chris,prolific_afc4,,"{'muct_id': '248', 'lighting': 'u', 'race_guess': 'w', 'gender_guess': 'w', 'quality': '3', 'quality_eyes': '3', 'quality_mouth': '3', 'quality_ears': '3', 'quality_hair': '3', 'quality_neck': '3', 'facial_hair': '0.0', 'notes': None, 'race_common': 'white', 'gender_common': 'woman'}","{'muct_id': '446', 'lighting': 'w', 'race_guess': 'w', 'gender_guess': 'w', 'quality': '3', 'quality_eyes': '3', 'quality_mouth': '3', 'quality_ears': '3', 'quality_hair': '3', 'quality_neck': '3', 'facial_hair': '0.0', 'notes': None, 'race_common': 'white', 'gender_common': 'woman'}",,,,,,,,,,,,,,,,,,,,,,,,,,,,,,,,,,,,,,,,,,,,,,,,,,,,,,,,,
1136,632237ad9cb434415f3c17c5,1779,False,"['../stimuli/version1_gray_lm/id019_25L_C.png', '../stimuli/version1_gray_lm/id059_00C_U.png', '../stimuli/version1_gray_lm/id019_25R_D.png']",arrowright,2.0,1.0,059,00C,U,black,woman,"[0, 2]",019,"['25L', '25R']","['C', 'D']",black,woman,0.8568629622459412,"[0.8191021680831909, 0.8367465138435364]",encoding,48,168190,0.0-45.0,5ffe6b8b773ec452c1d28adc,632233549dc26661ffa446b4,632236c1c40eeb677a79b69c,2.0,True,20.0,3ywjuoa2bgcqfcvotmhb,"9/14/2022, 4:21:02 PM",Chrome,main_task_5,chris,prolific_afc4,,"{'muct_id': '86', 'lighting': 'q', 'race_guess': 'b', 'gender_guess': 'w', 'quality': '3', 'quality_eyes': '3', 'quality_mouth': '3', 'quality_ears': '3', 'quality_hair': '3', 'quality_neck': '3', 'facial_hair': '0.0', 'notes': 'earrings', 'race_common': 'black', 'gender_common': 'woman'}","{'muct_id': '23', 'lighting': 'q', 'race_guess': 'b', 'gender_guess': 'u', 'quality': '3', 'quality_eyes': '3', 'quality_mouth': '3', 'quality_ears': '3', 'quality_hair': '3', 'quality_neck': '3', 'facial_hair': '0.0', 'notes': None, 'race_common': 'black', 'gender_common': 'woman'}",,,,,,,,,,,,,,,,,,,,,,,,,,,,,,,,,,,,,,,,,,,,,,,,,,,,,,,,,
1137,632237ad9cb434415f3c17c6,4095,False,"['../stimuli/version1_gray_lm/id056_25L_D.png', '../stimuli/version1_gray_lm/id122_25R_C.png', '../stimuli/version1_gray_lm/id056_00C_U.png']",arrowright,2.0,1.0,122,25R,C,black,man,"[0, 2]",056,"['25L', '00C']","['D', 'U']",black,man,0.7975159883499146,"[0.8538694381713867, 0.8133549094200134]",encoding,28,197193,0.0-23.0,5c005838232b6c0001221acf,632233549dc26661ffa446b5,632236e172e92fa01859b2a5,2.0,True,9.0,dd6gu4wm7h6h7koncy4d,"9/14/2022, 3:21:03 PM",Chrome,main_task_5,chris,prolific_afc4,,"{'muct_id': '425', 'lighting': 'x', 'race_guess': 'b', 'gender_guess': 'm', 'quality': '3', 'quality_eyes': '3', 'quality_mouth': '3', 'quality_ears': '3', 'quality_hair': '3', 'quality_neck': '3', 'facial_hair': '2.0', 'notes': None, 'race_common': 'black', 'gender_common': 'man'}","{'muct_id': '82', 'lighting': 'q', 'race_guess': 'b', 'gender_guess': 'm', 'quality': '3', 'quality_eyes': '3', 'quality_mouth': '3', 'quality_ears': '3', 'quality_hair': '3', 'quality_neck': '3', 'facial_hair': '1.0', 'notes': None, 'race_common': 'black', 'gender_common': 'man'}",,,,,,,,,,,,,,,,,,,,,,,,,,,,,,,,,,,,,,,,,,,,,,,,,,,,,,,,,
1138,632237b19cb434415f3c17c7,3333,False,"['../stimuli/version1_gray_lm/id123_00C_U.png', '../stimuli/version1_gray_lm/id151_25R_D.png', '../stimuli/version1_gray_lm/id123_25L_C.png']",arrowright,2.0,1.0,151,25R,D,white,woman,"[0, 2]",123,"['00C', '25L']","['U', 'C']",white,woman,0.828726053237915,"[0.8018196225166321, 0.8186185956001282]",encoding,30,201433,0.0-25.0,5c005838232b6c0001221acf,632233549dc26661ffa446b5,632236e172e92fa01859b2a5,2.0,True,10.0,dd6gu4wm7h6h7koncy4d,"9/14/2022, 3:21:07 PM",Chrome,main_task_5,chris,prolific_afc4,,"{'muct_id': '444', 'lighting': 'w', 'race_guess': 'w', 'gender_guess': 'w', 'quality': '3', 'quality_eyes': '3', 'quality_mouth': '3', 'quality_ears': '3', 'quality_hair': '3', 'quality_neck': '3', 'facial_hair': '0.0', 'notes': None, 'race_common': 'white', 'gender_common': 'woman'}","{'muct_id': '76', 'lighting': 'q', 'race_guess': 'w', 'gender_guess': 'w', 'quality': '2', 'quality_eyes': '2', 'quality_mouth': '3', 'quality_ears': '2', 'quality_hair': '2', 'quality_neck': '3', 'facial_hair': '0.0', 'notes': 'hair', 'race_common': 'white', 'gender_common': 'woman'}",,,,,,,,,,,,,,,,,,,,,,,,,,,,,,,,,,,,,,,,,,,,,,,,,,,,,,,,,
1139,632237b29cb434415f3c17c8,4882,False,"['../stimuli/version1_gray_lm/id107_25R_U.png', '../stimuli/version1_gray_lm/id107_00C_D.png', '../stimuli/version1_gray_lm/id028_25L_C.png']",arrowdown,3.0,2.0,028,25L,C,black,man,"[0, 1]",107,"['25R', '00C']","['U', 'D']",black,man,0.862675666809082,"[0.8212865591049194, 0.8626779317855835]",encoding,50,173644,0.0-47.0,5ffe6b8b773ec452c1d28adc,632233549dc26661ffa446b4,632236c1c40eeb677a79b69c,3.0,True,21.0,3ywjuoa2bgcqfcvotmhb,"9/14/2022, 4:21:07 PM",Chrome,main_task_5,chris,prolific_afc4,,"{'muct_id': '38', 'lighting': 'q', 'race_guess': 'b', 'gender_guess': 'm', 'quality': '3', 'quality_eyes': '3', 'quality_mouth': '3', 'quality_ears': '3', 'quality_hair': '3', 'quality_neck': '3', 'facial_hair': '2.0', 'notes': None, 'race_common': 'black', 'gender_common': 'man'}","{'muct_id': '297', 'lighting': 't', 'race_guess': 'b', 'gender_guess': 'm', 'quality': '3', 'quality_eyes': '3', 'quality_mouth': '3', 'quality_ears': '3', 'quality_hair': '3', 'quality_neck': '3', 'facial_hair': '4.0', 'notes': 'beard', 'race_common': 'black', 'gender_common': 'man'}",,,,,,,,,,,,,,,,,,,,,,,,,,,,,,,,,,,,,,,,,,,,,,,,,,,,,,,,,
1140,632237b29cb434415f3c17c9,1629,False,"['../stimuli/objectome/2999.jpeg', '../stimuli/objectome/1845.jpeg', '../stimuli/objectome/2991.jpeg']",arrowright,2.0,1845.0,,,,,,,,,,,,,,filler,92,295644,0.0-89.0-0.0,60fc3be8b7778559e151b9dc,632233549dc26661ffa446b5,63223683b3ebcc98e45e424d,2.0,True,1.0,bekm0cy9xqoaj3vlle58,"9/14/2022, 3:21:24 PM",Chrome,main_task_5,chris,prolific_afc4,,,,,,,planes,_19_flyingBoat,planes,_19_flyingBoat,within,,planes,"[2999, 2991]",rdbarren,V3,,,,,,,,,,,,,,,,,,,,,,,,,,,,,,,,,,,,,,,,,,,,
1141,632237b59cb434415f3c17ca,3058,False,"['../stimuli/version1_gray_lm/id077_25R_C.png', '../stimuli/version1_gray_lm/id069_00C_D.png', '../stimuli/version1_gray_lm/id069_25L_U.png']",arrowleft,1.0,0.0,077,25R,C,black,woman,"[1, 2]",069,"['00C', '25L']","['D', 'U']",black,woman,0.8258023858070374,"[0.8659036755561829, 0.8012693524360657]",encoding,52,177193,0.0-49.0,5ffe6b8b773ec452c1d28adc,632233549dc26661ffa446b4,632236c1c40eeb677a79b69c,1.0,True,22.0,3ywjuoa2bgcqfcvotmhb,"9/14/2022, 4:21:11 PM",Chrome,main_task_5,chris,prolific_afc4,,"{'muct_id': '235', 'lighting': 'u', 'race_guess': 'b', 'gender_guess': 'w', 'quality': '3', 'quality_eyes': '3', 'quality_mouth': '3', 'quality_ears': '3', 'quality_hair': '3', 'quality_neck': '3', 'facial_hair': '0.0', 'notes': 'earrings', 'race_common': 'black', 'gender_common': 'woman'}","{'muct_id': '218', 'lighting': 't', 'race_guess': 'b', 'gender_guess': 'w', 'quality': '3', 'quality_eyes': '3', 'quality_mouth': '3', 'quality_ears': '3', 'quality_hair': '3', 'quality_neck': '3', 'facial_hair': '0.0', 'notes': None, 'race_common': 'black', 'gender_common': 'woman'}",,,,,,,,,,,,,,,,,,,,,,,,,,,,,,,,,,,,,,,,,,,,,,,,,,,,,,,,,
1142,632237b69cb434415f3c17cb,1941,False,"['../stimuli/objectome/2256.jpeg', '../stimuli/objectome/2081.jpeg', '../stimuli/objectome/2278.jpeg']",arrowright,2.0,2081.0,,,,,,,,,,,,,,filler,94,299313,0.0-90.0-0.0,60fc3be8b7778559e151b9dc,632233549dc26661ffa446b5,63223683b3ebcc98e45e424d,2.0,True,2.0,bekm0cy9xqoaj3vlle58,"9/14/2022, 3:21:27 PM",Chrome,main_task_5,chris,prolific_afc4,,,,,,,animals,bear,animals,bear,within,,animals,"[2256, 2278]",breed_pug,V3,,,,,,,,,,,,,,,,,,,,,,,,,,,,,,,,,,,,,,,,,,,,
1143,632237b79cb434415f3c17cc,5028,False,"['../stimuli/version1_gray_lm/id044_00C_C.png', '../stimuli/version1_gray_lm/id104_25L_D.png', '../stimuli/version1_gray_lm/id044_25R_U.png']",arrowright,2.0,1.0,104,25L,D,white,man,"[0, 2]",044,"['00C', '25R']","['C', 'U']",white,man,0.8564439415931702,"[0.8396022319793701, 0.8583433032035828]",encoding,32,207501,0.0-27.0,5c005838232b6c0001221acf,632233549dc26661ffa446b5,632236e172e92fa01859b2a5,2.0,True,11.0,dd6gu4wm7h6h7koncy4d,"9/14/2022, 3:21:13 PM",Chrome,main_task_5,chris,prolific_afc4,,"{'muct_id': '287', 'lighting': 't', 'race_guess': 'w', 'gender_guess': 'm', 'quality': '3', 'quality_eyes': '3', 'quality_mouth': '3', 'quality_ears': '3', 'quality_hair': '3', 'quality_neck': '3', 'facial_hair': '2.0', 'notes': None, 'race_common': 'white', 'gender_common': 'man'}","{'muct_id': '60', 'lighting': 's', 'race_guess': 'u', 'gender_guess': 'm', 'quality': '3', 'quality_eyes': '3', 'quality_mouth': '3', 'quality_ears': '3', 'quality_hair': '3', 'quality_neck': '3', 'facial_hair': '2.0', 'notes': None, 'race_common': 'white', 'gender_common': 'man'}",,,,,,,,,,,,,,,,,,,,,,,,,,,,,,,,,,,,,,,,,,,,,,,,,,,,,,,,,
1144,632237b89cb434415f3c17cd,1836,False,"['../stimuli/objectome/228.jpeg', '../stimuli/objectome/238.jpeg', '../stimuli/objectome/227.jpeg']",arrowright,2.0,238.0,,,,,,,,,,,,,,filler,96,301601,0.0-91.0-0.0,60fc3be8b7778559e151b9dc,632233549dc26661ffa446b5,63223683b3ebcc98e45e424d,2.0,True,3.0,bekm0cy9xqoaj3vlle58,"9/14/2022, 3:21:29 PM",Chrome,main_task_5,chris,prolific_afc4,,,,,,,chairs,_033,chairs,_033,within,,chairs,"[228, 227]",_031,V0,,,,,,,,,,,,,,,,,,,,,,,,,,,,,,,,,,,,,,,,,,,,
1145,632237b89cb434415f3c17ce,2233,False,"['../stimuli/version1_gray_lm/id047_25R_U.png', '../stimuli/version1_gray_lm/id034_00C_D.png', '../stimuli/version1_gray_lm/id034_25L_C.png']",arrowleft,1.0,0.0,047,25R,U,white,man,"[1, 2]",034,"['00C', '25L']","['D', 'C']",white,man,0.818461000919342,"[0.8462475538253784, 0.8475770950317383]",encoding,54,180089,0.0-51.0,5ffe6b8b773ec452c1d28adc,632233549dc26661ffa446b4,632236c1c40eeb677a79b69c,1.0,True,23.0,3ywjuoa2bgcqfcvotmhb,"9/14/2022, 4:21:14 PM",Chrome,main_task_5,chris,prolific_afc4,,"{'muct_id': '64', 'lighting': 'q', 'race_guess': 'w', 'gender_guess': 'm', 'quality': '3', 'quality_eyes': '3', 'quality_mouth': '3', 'quality_ears': '3', 'quality_hair': '3', 'quality_neck': '3', 'facial_hair': '0.0', 'notes': None, 'race_common': 'white', 'gender_common': 'man'}","{'muct_id': '45', 'lighting': 'q', 'race_guess': 'w', 'gender_guess': 'm', 'quality': '3', 'quality_eyes': '3', 'quality_mouth': '3', 'quality_ears': '3', 'quality_hair': '3', 'quality_neck': '3', 'facial_hair': '0.0', 'notes': None, 'race_common': 'white', 'gender_common': 'man'}",,,,,,,,,,,,,,,,,,,,,,,,,,,,,,,,,,,,,,,,,,,,,,,,,,,,,,,,,
1146,632237ba9cb434415f3c17cf,1952,False,"['../stimuli/version1_gray_lm/id098_25R_D.png', '../stimuli/version1_gray_lm/id107_25L_U.png', '../stimuli/version1_gray_lm/id107_00C_C.png']",arrowleft,1.0,0.0,098,25R,D,black,man,"[1, 2]",107,"['25L', '00C']","['U', 'C']",black,man,0.8448700308799744,"[0.8199091553688049, 0.8278013467788696]",encoding,34,210474,0.0-29.0,5c005838232b6c0001221acf,632233549dc26661ffa446b5,632236e172e92fa01859b2a5,1.0,True,12.0,dd6gu4wm7h6h7koncy4d,"9/14/2022, 3:21:16 PM",Chrome,main_task_5,chris,prolific_afc4,,"{'muct_id': '274', 'lighting': 't', 'race_guess': 'b', 'gender_guess': 'm', 'quality': '3', 'quality_eyes': '3', 'quality_mouth': '3', 'quality_ears': '3', 'quality_hair': '3', 'quality_neck': '3', 'facial_hair': '4.0', 'notes': None, 'race_common': 'black', 'gender_common': 'man'}","{'muct_id': '297', 'lighting': 't', 'race_guess': 'b', 'gender_guess': 'm', 'quality': '3', 'quality_eyes': '3', 'quality_mouth': '3', 'quality_ears': '3', 'quality_hair': '3', 'quality_neck': '3', 'facial_hair': '4.0', 'notes': 'beard', 'race_common': 'black', 'gender_common': 'man'}",,,,,,,,,,,,,,,,,,,,,,,,,,,,,,,,,,,,,,,,,,,,,,,,,,,,,,,,,
1147,632237bc9cb434415f3c17d0,3022,False,"['../stimuli/version1_gray_lm/id115_25L_D.png', '../stimuli/version1_gray_lm/id094_25R_C.png', '../stimuli/version1_gray_lm/id094_00C_U.png']",arrowleft,1.0,0.0,115,25L,D,white,man,"[1, 2]",094,"['25R', '00C']","['C', 'U']",white,man,0.8717191815376282,"[0.80197674036026, 0.8426395058631897]",encoding,56,183685,0.0-53.0,5ffe6b8b773ec452c1d28adc,632233549dc26661ffa446b4,632236c1c40eeb677a79b69c,1.0,True,24.0,3ywjuoa2bgcqfcvotmhb,"9/14/2022, 4:21:17 PM",Chrome,main_task_5,chris,prolific_afc4,,"{'muct_id': '412', 'lighting': 'x', 'race_guess': 'w', 'gender_guess': 'm', 'quality': '3', 'quality_eyes': '3', 'quality_mouth': '3', 'quality_ears': '3', 'quality_hair': '3', 'quality_neck': '3', 'facial_hair': '0.0', 'notes': None, 'race_common': 'white', 'gender_common': 'man'}","{'muct_id': '264', 'lighting': 't', 'race_guess': 'w', 'gender_guess': 'm', 'quality': '3', 'quality_eyes': '3', 'quality_mouth': '3', 'quality_ears': '3', 'quality_hair': '3', 'quality_neck': '3', 'facial_hair': '0.0', 'notes': None, 'race_common': 'white', 'gender_common': 'man'}",,,,,,,,,,,,,,,,,,,,,,,,,,,,,,,,,,,,,,,,,,,,,,,,,,,,,,,,,
1148,632237bd9cb434415f3c17d1,2042,False,"['../stimuli/objectome/2121.jpeg', '../stimuli/objectome/973.jpeg', '../stimuli/objectome/2131.jpeg']",arrowright,2.0,973.0,,,,,,,,,,,,,,filler,99,306780,0.0-93.0,60fc3be8b7778559e151b9dc,632233549dc26661ffa446b5,63223683b3ebcc98e45e424d,2.0,True,4.0,bekm0cy9xqoaj3vlle58,"9/14/2022, 3:21:35 PM",Chrome,main_task_5,chris,prolific_afc4,,,,,,,animals,LIONESS,animals,LIONESS,within,,animals,"[2121, 2131]",blCow,V3,,,,,,,,,,,,,,,,,,,,,,,,,,,,,,,,,,,,,,,,,,,,
