,_id,rt,timed_out,stimulus,key_press,correct_response,oddity_index,oddity_identity,oddity_tiltLR,oddity_tiltUD,oddity_race,oddity_gender,typicals_indices,typicals_identity,typicals_tiltsLR,typicals_tiltsUD,typicals_race,typicals_gender,oddity_mb,typicals_mb,trial_type,trial_index,time_elapsed,internal_node_id,subject_id,study_id,session_id,choice,correct,trial_number,experiment_id,datetime,browser,collection,database,iteration,practice_threshold_met,oddity_meta,typicals_meta,button_pressed,last_trial_type,prediction,choice_category,choice_object,oddity_category,oddity_name,oddity_type,stimulus_response_map,typical_category,typical_indices,typical_name,variation_level,meta_new,meta_old,new_gender,new_identity,new_index,new_mb,new_race,new_tiltLR,new_tiltUD,old_encoding_pair,old_encoding_type,old_gender,old_identity,old_index,old_mb,old_original_index,old_original_tiltLR,old_original_tiltUD,old_race,old_tiltLR,old_tiltUD,response,slider_start,stimuli,tilt_change,tilt_difference,encoding_accuracy,encoding_avg_rt,encoding_n_trials,experimental_duration,filler_accuracy,filler_avg_rt,filler_n_trials,params,retrieval_accuracy,retrieval_avg_rt,retrieval_n_trials,total_bonus,total_payment,age,gender,gender_other,latinx,race
2227,6331f6539cb434415f3c1c08,2911,False,"['../stimuli/version1_gray_lm/id014_25L_C.png', '../stimuli/version1_gray_lm/id025_00C_U.png', '../stimuli/version1_gray_lm/id025_25R_D.png']",arrowleft,1.0,0.0,014,25L,C,latinx,man,"[1, 2]",025,"['00C', '25R']","['U', 'D']",latinx,woman,0.8286107182502747,"[0.7825284600257874, 0.825883150100708]",encoding_practice,3,82678,0.0-3.0-0.0,612cf985fdf515920654eeff,6331f1b0a8414c625326e97a,6331f5f2ee3aa1b44b60bf1f,1.0,True,1.0,26o7jq95u69cmyl7q3tt,"9/26/2022, 2:58:27 PM",Chrome,main_task_5,chris,prolific_afc6,,,,,,,,,,,,,,,,,,,,,,,,,,,,,,,,,,,,,,,,,,,,,,,,,,,,,,,,,,,,
2228,6331f6579cb434415f3c1c09,2173,False,"['../stimuli/version1_gray_lm/id014_25R_U.png', '../stimuli/version1_gray_lm/id025_25L_D.png', '../stimuli/version1_gray_lm/id025_00C_C.png']",arrowleft,1.0,0.0,014,25R,U,latinx,man,"[1, 2]",025,"['25L', '00C']","['D', 'C']",latinx,woman,0.7874222993850708,"[0.8390334844589233, 0.8362827897071838]",encoding_practice,5,86815,0.0-4.0-0.0,612cf985fdf515920654eeff,6331f1b0a8414c625326e97a,6331f5f2ee3aa1b44b60bf1f,1.0,True,2.0,26o7jq95u69cmyl7q3tt,"9/26/2022, 2:58:31 PM",Chrome,main_task_5,chris,prolific_afc6,,,,,,,,,,,,,,,,,,,,,,,,,,,,,,,,,,,,,,,,,,,,,,,,,,,,,,,,,,,,
2229,6331f65a9cb434415f3c1c0a,2005,False,"['../stimuli/version1_gray_lm/id067_25R_U.png', '../stimuli/version1_gray_lm/id014_25L_D.png', '../stimuli/version1_gray_lm/id067_00C_C.png']",arrowright,2.0,1.0,014,25L,D,latinx,man,"[0, 2]",067,"['25R', '00C']","['U', 'C']",latinx,woman,0.8385756611824036,"[0.8587296605110168, 0.8427441716194153]",encoding_practice,7,90047,0.0-5.0-0.0,612cf985fdf515920654eeff,6331f1b0a8414c625326e97a,6331f5f2ee3aa1b44b60bf1f,2.0,True,3.0,26o7jq95u69cmyl7q3tt,"9/26/2022, 2:58:34 PM",Chrome,main_task_5,chris,prolific_afc6,True,,,,,,,,,,,,,,,,,,,,,,,,,,,,,,,,,,,,,,,,,,,,,,,,,,,,,,,,,,,
2230,6331f6689cb434415f3c1c0b,0,True,"['../stimuli/version1_gray_lm/id131_25R_U.png', '../stimuli/version1_gray_lm/id104_00C_D.png', '../stimuli/version1_gray_lm/id131_25L_C.png']",,2.0,1.0,104,00C,D,white,man,"[0, 2]",131,"['25R', '25L']","['U', 'C']",white,man,0.8582553267478943,"[0.8657861351966858, 0.8316954970359802]",encoding,10,103468,0.0-7.0,612cf985fdf515920654eeff,6331f1b0a8414c625326e97a,6331f5f2ee3aa1b44b60bf1f,,False,1.0,26o7jq95u69cmyl7q3tt,"9/26/2022, 2:58:48 PM",Chrome,main_task_5,chris,prolific_afc6,,"{'muct_id': '287', 'lighting': 't', 'race_guess': 'w', 'gender_guess': 'm', 'quality': '3', 'quality_eyes': '3', 'quality_mouth': '3', 'quality_ears': '3', 'quality_hair': '3', 'quality_neck': '3', 'facial_hair': '2.0', 'notes': None, 'race_common': 'white', 'gender_common': 'man'}","{'muct_id': '442', 'lighting': 'x', 'race_guess': 'w', 'gender_guess': 'm', 'quality': '3', 'quality_eyes': '3', 'quality_mouth': '3', 'quality_ears': '3', 'quality_hair': '3', 'quality_neck': '3', 'facial_hair': '2.0', 'notes': None, 'race_common': 'white', 'gender_common': 'man'}",,,,,,,,,,,,,,,,,,,,,,,,,,,,,,,,,,,,,,,,,,,,,,,,,,,,,,,,,
2231,6331f6739cb434415f3c1c0c,5109,False,"['../stimuli/version1_gray_lm/id019_00C_C.png', '../stimuli/version1_gray_lm/id019_25R_D.png', '../stimuli/version1_gray_lm/id140_25L_U.png']",arrowdown,3.0,2.0,140,25L,U,black,woman,"[0, 1]",019,"['00C', '25R']","['C', 'D']",black,woman,0.80336594581604,"[0.8477416634559631, 0.8367465138435364]",encoding,12,114104,0.0-9.0,612cf985fdf515920654eeff,6331f1b0a8414c625326e97a,6331f5f2ee3aa1b44b60bf1f,3.0,True,2.0,26o7jq95u69cmyl7q3tt,"9/26/2022, 2:58:58 PM",Chrome,main_task_5,chris,prolific_afc6,,"{'muct_id': '624', 'lighting': 'y', 'race_guess': 'b', 'gender_guess': 'w', 'quality': '3', 'quality_eyes': '3', 'quality_mouth': '3', 'quality_ears': '3', 'quality_hair': '3', 'quality_neck': '3', 'facial_hair': '0.0', 'notes': 'headband, earring', 'race_common': 'black', 'gender_common': 'woman'}","{'muct_id': '23', 'lighting': 'q', 'race_guess': 'b', 'gender_guess': 'u', 'quality': '3', 'quality_eyes': '3', 'quality_mouth': '3', 'quality_ears': '3', 'quality_hair': '3', 'quality_neck': '3', 'facial_hair': '0.0', 'notes': None, 'race_common': 'black', 'gender_common': 'woman'}",,,,,,,,,,,,,,,,,,,,,,,,,,,,,,,,,,,,,,,,,,,,,,,,,,,,,,,,,
2232,6331f6779cb434415f3c1c0d,3113,False,"['../stimuli/version1_gray_lm/id155_00C_C.png', '../stimuli/version1_gray_lm/id155_25R_U.png', '../stimuli/version1_gray_lm/id141_25L_D.png']",arrowdown,3.0,2.0,141,25L,D,white,woman,"[0, 1]",155,"['00C', '25R']","['C', 'U']",white,woman,0.8510769605636597,"[0.8539059162139893, 0.8348320722579956]",encoding,14,118348,0.0-11.0,612cf985fdf515920654eeff,6331f1b0a8414c625326e97a,6331f5f2ee3aa1b44b60bf1f,3.0,True,3.0,26o7jq95u69cmyl7q3tt,"9/26/2022, 2:59:03 PM",Chrome,main_task_5,chris,prolific_afc6,,"{'muct_id': '77', 'lighting': 's', 'race_guess': 'w', 'gender_guess': 'w', 'quality': '3', 'quality_eyes': '3', 'quality_mouth': '3', 'quality_ears': '3', 'quality_hair': '3', 'quality_neck': '3', 'facial_hair': '0.0', 'notes': None, 'race_common': 'white', 'gender_common': 'woman'}","{'muct_id': '615', 'lighting': 'z', 'race_guess': 'w', 'gender_guess': 'w', 'quality': '3', 'quality_eyes': '3', 'quality_mouth': '3', 'quality_ears': '3', 'quality_hair': '3', 'quality_neck': '3', 'facial_hair': '0.0', 'notes': 'earrings', 'race_common': 'white', 'gender_common': 'woman'}",,,,,,,,,,,,,,,,,,,,,,,,,,,,,,,,,,,,,,,,,,,,,,,,,,,,,,,,,
2233,6331f67a9cb434415f3c1c0e,2168,False,"['../stimuli/version1_gray_lm/id122_00C_D.png', '../stimuli/version1_gray_lm/id122_25L_C.png', '../stimuli/version1_gray_lm/id132_25R_U.png']",arrowdown,3.0,2.0,132,25R,U,black,man,"[0, 1]",122,"['00C', '25L']","['D', 'C']",black,man,0.8107916712760925,"[0.8157645463943481, 0.8010051846504211]",encoding,16,121318,0.0-13.0,612cf985fdf515920654eeff,6331f1b0a8414c625326e97a,6331f5f2ee3aa1b44b60bf1f,3.0,True,4.0,26o7jq95u69cmyl7q3tt,"9/26/2022, 2:59:05 PM",Chrome,main_task_5,chris,prolific_afc6,,"{'muct_id': '450', 'lighting': 'w', 'race_guess': 'b', 'gender_guess': 'm', 'quality': '3', 'quality_eyes': '3', 'quality_mouth': '3', 'quality_ears': '3', 'quality_hair': '3', 'quality_neck': '3', 'facial_hair': '4.0', 'notes': 'mouth', 'race_common': 'black', 'gender_common': 'man'}","{'muct_id': '425', 'lighting': 'x', 'race_guess': 'b', 'gender_guess': 'm', 'quality': '3', 'quality_eyes': '3', 'quality_mouth': '3', 'quality_ears': '3', 'quality_hair': '3', 'quality_neck': '3', 'facial_hair': '2.0', 'notes': None, 'race_common': 'black', 'gender_common': 'man'}",,,,,,,,,,,,,,,,,,,,,,,,,,,,,,,,,,,,,,,,,,,,,,,,,,,,,,,,,
2234,6331f67e9cb434415f3c1c0f,2555,False,"['../stimuli/version1_gray_lm/id045_00C_U.png', '../stimuli/version1_gray_lm/id147_25R_C.png', '../stimuli/version1_gray_lm/id147_25L_D.png']",arrowleft,1.0,0.0,045,00C,U,latinx,woman,"[1, 2]",147,"['25R', '25L']","['C', 'D']",latinx,man,0.7876907587051392,"[0.7946175932884216, 0.8452209234237671]",encoding_practice,3,99337,0.0-3.0-0.0,60fcec383dab931ff7a69163,6331f1b0a8414c625326e97a,6331f61090d5c50c1aea9f29,1.0,True,1.0,hnofuajabkh3hjqrm8gb,"9/26/2022, 1:59:10 PM",Chrome,main_task_5,chris,prolific_afc6,,,,,,,,,,,,,,,,,,,,,,,,,,,,,,,,,,,,,,,,,,,,,,,,,,,,,,,,,,,,
2235,6331f67f9cb434415f3c1c10,3481,False,"['../stimuli/version1_gray_lm/id093_25L_U.png', '../stimuli/version1_gray_lm/id143_25R_C.png', '../stimuli/version1_gray_lm/id093_00C_D.png']",arrowright,2.0,1.0,143,25R,C,white,man,"[0, 2]",093,"['25L', '00C']","['U', 'D']",white,man,0.8368167877197266,"[0.8253141641616821, 0.8937209844589233]",encoding,18,126724,0.0-15.0,612cf985fdf515920654eeff,6331f1b0a8414c625326e97a,6331f5f2ee3aa1b44b60bf1f,2.0,True,5.0,26o7jq95u69cmyl7q3tt,"9/26/2022, 2:59:11 PM",Chrome,main_task_5,chris,prolific_afc6,,"{'muct_id': '90', 'lighting': 'q', 'race_guess': 'u', 'gender_guess': 'm', 'quality': '2', 'quality_eyes': '3', 'quality_mouth': '3', 'quality_ears': '2', 'quality_hair': '3', 'quality_neck': '3', 'facial_hair': '4.0', 'notes': 'beard', 'race_common': 'white', 'gender_common': 'man'}","{'muct_id': '263', 'lighting': 'u', 'race_guess': 'w', 'gender_guess': 'm', 'quality': '3', 'quality_eyes': '3', 'quality_mouth': '3', 'quality_ears': '3', 'quality_hair': '3', 'quality_neck': '3', 'facial_hair': '2.0', 'notes': None, 'race_common': 'white', 'gender_common': 'man'}",,,,,,,,,,,,,,,,,,,,,,,,,,,,,,,,,,,,,,,,,,,,,,,,,,,,,,,,,
2236,6331f6839cb434415f3c1c11,3012,False,"['../stimuli/version1_gray_lm/id044_25R_D.png', '../stimuli/version1_gray_lm/id149_00C_U.png', '../stimuli/version1_gray_lm/id149_25L_C.png']",arrowleft,1.0,0.0,044,25R,D,white,man,"[1, 2]",149,"['00C', '25L']","['U', 'C']",white,man,0.8095013499259949,"[0.8242371678352356, 0.8039061427116394]",encoding,20,130477,0.0-17.0,612cf985fdf515920654eeff,6331f1b0a8414c625326e97a,6331f5f2ee3aa1b44b60bf1f,1.0,True,6.0,26o7jq95u69cmyl7q3tt,"9/26/2022, 2:59:15 PM",Chrome,main_task_5,chris,prolific_afc6,,"{'muct_id': '60', 'lighting': 's', 'race_guess': 'u', 'gender_guess': 'm', 'quality': '3', 'quality_eyes': '3', 'quality_mouth': '3', 'quality_ears': '3', 'quality_hair': '3', 'quality_neck': '3', 'facial_hair': '2.0', 'notes': None, 'race_common': 'white', 'gender_common': 'man'}","{'muct_id': '416', 'lighting': 'w', 'race_guess': 'w', 'gender_guess': 'm', 'quality': '3', 'quality_eyes': '3', 'quality_mouth': '3', 'quality_ears': '3', 'quality_hair': '3', 'quality_neck': '3', 'facial_hair': '2.0', 'notes': None, 'race_common': 'white', 'gender_common': 'man'}",,,,,,,,,,,,,,,,,,,,,,,,,,,,,,,,,,,,,,,,,,,,,,,,,,,,,,,,,
2237,6331f6849cb434415f3c1c12,2167,False,"['../stimuli/version1_gray_lm/id154_25L_C.png', '../stimuli/version1_gray_lm/id045_00C_D.png', '../stimuli/version1_gray_lm/id045_25R_U.png']",arrowdown,1.0,0.0,154,25L,C,latinx,woman,"[1, 2]",045,"['00C', '25R']","['D', 'U']",latinx,woman,0.8317701816558838,"[0.8873592615127563, 0.8398581147193909]",encoding_practice,5,105141,0.0-4.0-0.0,60fcec383dab931ff7a69163,6331f1b0a8414c625326e97a,6331f61090d5c50c1aea9f29,3.0,False,2.0,hnofuajabkh3hjqrm8gb,"9/26/2022, 1:59:16 PM",Chrome,main_task_5,chris,prolific_afc6,,,,,,,,,,,,,,,,,,,,,,,,,,,,,,,,,,,,,,,,,,,,,,,,,,,,,,,,,,,,
2238,6331f6869cb434415f3c1c13,2115,False,"['../stimuli/version1_gray_lm/id128_25R_D.png', '../stimuli/version1_gray_lm/id128_00C_C.png', '../stimuli/version1_gray_lm/id090_25L_U.png']",arrowdown,3.0,2.0,090,25L,U,black,man,"[0, 1]",128,"['25R', '00C']","['D', 'C']",black,man,0.8159176707267761,"[0.7945041060447693, 0.8150124549865723]",encoding,22,133248,0.0-19.0,612cf985fdf515920654eeff,6331f1b0a8414c625326e97a,6331f5f2ee3aa1b44b60bf1f,3.0,True,7.0,26o7jq95u69cmyl7q3tt,"9/26/2022, 2:59:17 PM",Chrome,main_task_5,chris,prolific_afc6,,"{'muct_id': '259', 'lighting': 'v', 'race_guess': 'b', 'gender_guess': 'm', 'quality': '3', 'quality_eyes': '3', 'quality_mouth': '3', 'quality_ears': '3', 'quality_hair': '3', 'quality_neck': '3', 'facial_hair': '2.0', 'notes': None, 'race_common': 'black', 'gender_common': 'man'}","{'muct_id': '436', 'lighting': 'w', 'race_guess': 'b', 'gender_guess': 'm', 'quality': '3', 'quality_eyes': '3', 'quality_mouth': '3', 'quality_ears': '3', 'quality_hair': '3', 'quality_neck': '3', 'facial_hair': '3.0', 'notes': 'beard', 'race_common': 'black', 'gender_common': 'man'}",,,,,,,,,,,,,,,,,,,,,,,,,,,,,,,,,,,,,,,,,,,,,,,,,,,,,,,,,
2239,6331f6899cb434415f3c1c14,3892,False,"['../stimuli/version1_gray_lm/id154_25L_C.png', '../stimuli/version1_gray_lm/id045_00C_D.png', '../stimuli/version1_gray_lm/id045_25R_U.png']",arrowleft,1.0,0.0,154,25L,C,latinx,woman,"[1, 2]",045,"['00C', '25R']","['D', 'U']",latinx,woman,0.8317701816558838,"[0.8873592615127563, 0.8398581147193909]",encoding_practice,7,110225,0.0-4.1-0.1,60fcec383dab931ff7a69163,6331f1b0a8414c625326e97a,6331f61090d5c50c1aea9f29,1.0,True,3.0,hnofuajabkh3hjqrm8gb,"9/26/2022, 1:59:21 PM",Chrome,main_task_5,chris,prolific_afc6,,,,,,,,,,,,,,,,,,,,,,,,,,,,,,,,,,,,,,,,,,,,,,,,,,,,,,,,,,,,
2240,6331f68d9cb434415f3c1c15,6414,False,"['../stimuli/version1_gray_lm/id020_25R_U.png', '../stimuli/version1_gray_lm/id126_25L_D.png', '../stimuli/version1_gray_lm/id020_00C_C.png']",arrowleft,2.0,1.0,126,25L,D,black,woman,"[0, 2]",020,"['25R', '00C']","['U', 'C']",black,woman,0.8492910265922546,"[0.7956835031509399, 0.8305983543395996]",encoding,24,140412,0.0-21.0,612cf985fdf515920654eeff,6331f1b0a8414c625326e97a,6331f5f2ee3aa1b44b60bf1f,1.0,False,8.0,26o7jq95u69cmyl7q3tt,"9/26/2022, 2:59:25 PM",Chrome,main_task_5,chris,prolific_afc6,,"{'muct_id': '434', 'lighting': 'w', 'race_guess': 'b', 'gender_guess': 'w', 'quality': '3', 'quality_eyes': '3', 'quality_mouth': '3', 'quality_ears': '3', 'quality_hair': '3', 'quality_neck': '3', 'facial_hair': '0.0', 'notes': 'earrings', 'race_common': 'black', 'gender_common': 'woman'}","{'muct_id': '24', 'lighting': 'q', 'race_guess': 'b', 'gender_guess': 'w', 'quality': '3', 'quality_eyes': '3', 'quality_mouth': '3', 'quality_ears': '3', 'quality_hair': '3', 'quality_neck': '3', 'facial_hair': '0.0', 'notes': None, 'race_common': 'black', 'gender_common': 'woman'}",,,,,,,,,,,,,,,,,,,,,,,,,,,,,,,,,,,,,,,,,,,,,,,,,,,,,,,,,
2241,6331f68f9cb434415f3c1c16,4611,False,"['../stimuli/version1_gray_lm/id045_00C_D.png', '../stimuli/version1_gray_lm/id147_25L_C.png', '../stimuli/version1_gray_lm/id147_25R_U.png']",arrowleft,1.0,0.0,045,00C,D,latinx,woman,"[1, 2]",147,"['25L', '25R']","['C', 'U']",latinx,man,0.8873592615127563,"[0.8134909272193909, 0.8638662695884705]",encoding_practice,9,115966,0.0-5.0-0.0,60fcec383dab931ff7a69163,6331f1b0a8414c625326e97a,6331f61090d5c50c1aea9f29,1.0,True,4.0,hnofuajabkh3hjqrm8gb,"9/26/2022, 1:59:26 PM",Chrome,main_task_5,chris,prolific_afc6,True,,,,,,,,,,,,,,,,,,,,,,,,,,,,,,,,,,,,,,,,,,,,,,,,,,,,,,,,,,,
2242,6331f6909cb434415f3c1c17,2580,False,"['../stimuli/version1_gray_lm/id059_00C_U.png', '../stimuli/version1_gray_lm/id059_25R_C.png', '../stimuli/version1_gray_lm/id144_25L_D.png']",arrowdown,3.0,2.0,144,25L,D,black,woman,"[0, 1]",059,"['00C', '25R']","['U', 'C']",black,woman,0.8706281185150146,"[0.8568629622459412, 0.809404730796814]",encoding,26,143802,0.0-23.0,612cf985fdf515920654eeff,6331f1b0a8414c625326e97a,6331f5f2ee3aa1b44b60bf1f,3.0,True,9.0,26o7jq95u69cmyl7q3tt,"9/26/2022, 2:59:28 PM",Chrome,main_task_5,chris,prolific_afc6,,"{'muct_id': '214', 'lighting': 'u', 'race_guess': 'b', 'gender_guess': 'w', 'quality': '2', 'quality_eyes': '2', 'quality_mouth': '3', 'quality_ears': '3', 'quality_hair': '3', 'quality_neck': '3', 'facial_hair': '0.0', 'notes': None, 'race_common': 'black', 'gender_common': 'woman'}","{'muct_id': '86', 'lighting': 'q', 'race_guess': 'b', 'gender_guess': 'w', 'quality': '3', 'quality_eyes': '3', 'quality_mouth': '3', 'quality_ears': '3', 'quality_hair': '3', 'quality_neck': '3', 'facial_hair': '0.0', 'notes': 'earrings', 'race_common': 'black', 'gender_common': 'woman'}",,,,,,,,,,,,,,,,,,,,,,,,,,,,,,,,,,,,,,,,,,,,,,,,,,,,,,,,,
2243,6331f6959cb434415f3c1c18,3967,False,"['../stimuli/version1_gray_lm/id005_25R_C.png', '../stimuli/version1_gray_lm/id005_25L_U.png', '../stimuli/version1_gray_lm/id136_00C_D.png']",arrowdown,3.0,2.0,136,00C,D,black,woman,"[0, 1]",005,"['25R', '25L']","['C', 'U']",black,woman,0.8557618260383606,"[0.7777500748634338, 0.7520265579223633]",encoding,28,148530,0.0-25.0,612cf985fdf515920654eeff,6331f1b0a8414c625326e97a,6331f5f2ee3aa1b44b60bf1f,3.0,True,10.0,26o7jq95u69cmyl7q3tt,"9/26/2022, 2:59:33 PM",Chrome,main_task_5,chris,prolific_afc6,,"{'muct_id': '616', 'lighting': 'y', 'race_guess': 'b', 'gender_guess': 'w', 'quality': '3', 'quality_eyes': '3', 'quality_mouth': '3', 'quality_ears': '3', 'quality_hair': '3', 'quality_neck': '3', 'facial_hair': '0.0', 'notes': 'earrings', 'race_common': 'black', 'gender_common': 'woman'}","{'muct_id': '5', 'lighting': 'q', 'race_guess': 'b', 'gender_guess': 'w', 'quality': '3', 'quality_eyes': '3', 'quality_mouth': '3', 'quality_ears': '3', 'quality_hair': '3', 'quality_neck': '3', 'facial_hair': '0.0', 'notes': 'hat', 'race_common': 'black', 'gender_common': 'woman'}",,,,,,,,,,,,,,,,,,,,,,,,,,,,,,,,,,,,,,,,,,,,,,,,,,,,,,,,,
2244,6331f69a9cb434415f3c1c19,3903,False,"['../stimuli/version1_gray_lm/id054_25R_U.png', '../stimuli/version1_gray_lm/id017_00C_C.png', '../stimuli/version1_gray_lm/id054_25L_D.png']",arrowright,2.0,1.0,017,00C,C,white,woman,"[0, 2]",054,"['25R', '25L']","['U', 'D']",white,woman,0.8016844391822815,"[0.8611087799072266, 0.8656204342842102]",encoding,30,153435,0.0-27.0,612cf985fdf515920654eeff,6331f1b0a8414c625326e97a,6331f5f2ee3aa1b44b60bf1f,2.0,True,11.0,26o7jq95u69cmyl7q3tt,"9/26/2022, 2:59:38 PM",Chrome,main_task_5,chris,prolific_afc6,,"{'muct_id': '19', 'lighting': 'r', 'race_guess': 'w', 'gender_guess': 'w', 'quality': '3', 'quality_eyes': '3', 'quality_mouth': '3', 'quality_ears': '3', 'quality_hair': '3', 'quality_neck': '3', 'facial_hair': '0.0', 'notes': None, 'race_common': 'white', 'gender_common': 'woman'}","{'muct_id': '80', 'lighting': 's', 'race_guess': 'b', 'gender_guess': 'w', 'quality': '3', 'quality_eyes': '3', 'quality_mouth': '3', 'quality_ears': '3', 'quality_hair': '3', 'quality_neck': '3', 'facial_hair': '0.0', 'notes': 'earrings', 'race_common': 'white', 'gender_common': 'woman'}",,,,,,,,,,,,,,,,,,,,,,,,,,,,,,,,,,,,,,,,,,,,,,,,,,,,,,,,,
2245,6331f69a9cb434415f3c1c1a,4193,False,"['../stimuli/version1_gray_lm/id127_00C_U.png', '../stimuli/version1_gray_lm/id060_25L_C.png', '../stimuli/version1_gray_lm/id127_25R_D.png']",arrowleft,2.0,1.0,060,25L,C,black,woman,"[0, 2]",127,"['00C', '25R']","['U', 'D']",black,woman,0.8625316619873047,"[0.7882112264633179, 0.8157721757888794]",encoding,12,127893,0.0-7.0,60fcec383dab931ff7a69163,6331f1b0a8414c625326e97a,6331f61090d5c50c1aea9f29,1.0,False,1.0,hnofuajabkh3hjqrm8gb,"9/26/2022, 1:59:38 PM",Chrome,main_task_5,chris,prolific_afc6,,"{'muct_id': '88', 'lighting': 'q', 'race_guess': 'b', 'gender_guess': 'w', 'quality': '3', 'quality_eyes': '3', 'quality_mouth': '3', 'quality_ears': '3', 'quality_hair': '3', 'quality_neck': '3', 'facial_hair': '0.0', 'notes': 'earrings', 'race_common': 'black', 'gender_common': 'woman'}","{'muct_id': '435', 'lighting': 'x', 'race_guess': 'b', 'gender_guess': 'w', 'quality': '3', 'quality_eyes': '3', 'quality_mouth': '3', 'quality_ears': '3', 'quality_hair': '3', 'quality_neck': '3', 'facial_hair': '0.0', 'notes': 'bandana', 'race_common': 'black', 'gender_common': 'woman'}",,,,,,,,,,,,,,,,,,,,,,,,,,,,,,,,,,,,,,,,,,,,,,,,,,,,,,,,,
2246,6331f69d9cb434415f3c1c1b,2072,False,"['../stimuli/version1_gray_lm/id053_25R_U.png', '../stimuli/version1_gray_lm/id053_00C_C.png', '../stimuli/version1_gray_lm/id043_25L_D.png']",arrowdown,3.0,2.0,043,25L,D,white,man,"[0, 1]",053,"['25R', '00C']","['U', 'C']",white,man,0.8475186228752136,"[0.8097671866416931, 0.8254649639129639]",encoding,32,156360,0.0-29.0,612cf985fdf515920654eeff,6331f1b0a8414c625326e97a,6331f5f2ee3aa1b44b60bf1f,3.0,True,12.0,26o7jq95u69cmyl7q3tt,"9/26/2022, 2:59:41 PM",Chrome,main_task_5,chris,prolific_afc6,,"{'muct_id': '58', 'lighting': 'q', 'race_guess': 'w', 'gender_guess': 'm', 'quality': '3', 'quality_eyes': '3', 'quality_mouth': '3', 'quality_ears': '3', 'quality_hair': '3', 'quality_neck': '3', 'facial_hair': '0.0', 'notes': None, 'race_common': 'white', 'gender_common': 'man'}","{'muct_id': '79', 'lighting': 'r', 'race_guess': 'i', 'gender_guess': 'm', 'quality': '2', 'quality_eyes': '2', 'quality_mouth': '3', 'quality_ears': '3', 'quality_hair': '2', 'quality_neck': '3', 'facial_hair': '0.0', 'notes': None, 'race_common': 'white', 'gender_common': 'man'}",,,,,,,,,,,,,,,,,,,,,,,,,,,,,,,,,,,,,,,,,,,,,,,,,,,,,,,,,
2247,6331f6a19cb434415f3c1c1c,3698,False,"['../stimuli/version1_gray_lm/id016_00C_U.png', '../stimuli/version1_gray_lm/id016_25L_D.png', '../stimuli/version1_gray_lm/id142_25R_C.png']",arrowdown,3.0,2.0,142,25R,C,black,woman,"[0, 1]",016,"['00C', '25L']","['U', 'D']",black,woman,0.8002683520317078,"[0.7303952574729919, 0.8748856782913208]",encoding,34,160929,0.0-31.0,612cf985fdf515920654eeff,6331f1b0a8414c625326e97a,6331f5f2ee3aa1b44b60bf1f,3.0,True,13.0,26o7jq95u69cmyl7q3tt,"9/26/2022, 2:59:45 PM",Chrome,main_task_5,chris,prolific_afc6,,"{'muct_id': '87', 'lighting': 'r', 'race_guess': 'b', 'gender_guess': 'w', 'quality': '3', 'quality_eyes': '3', 'quality_mouth': '3', 'quality_ears': '3', 'quality_hair': '3', 'quality_neck': '3', 'facial_hair': '0.0', 'notes': 'earrings hair', 'race_common': 'black', 'gender_common': 'woman'}","{'muct_id': '18', 'lighting': 'q', 'race_guess': 'b', 'gender_guess': 'w', 'quality': '3', 'quality_eyes': '3', 'quality_mouth': '3', 'quality_ears': '3', 'quality_hair': '3', 'quality_neck': '3', 'facial_hair': '0.0', 'notes': 'earrings', 'race_common': 'black', 'gender_common': 'woman'}",,,,,,,,,,,,,,,,,,,,,,,,,,,,,,,,,,,,,,,,,,,,,,,,,,,,,,,,,
2248,6331f6a29cb434415f3c1c1d,6672,False,"['../stimuli/version1_gray_lm/id113_00C_D.png', '../stimuli/version1_gray_lm/id121_25L_C.png', '../stimuli/version1_gray_lm/id121_25R_U.png']",arrowleft,1.0,0.0,113,00C,D,black,man,"[1, 2]",121,"['25L', '25R']","['C', 'U']",black,man,0.8599904179573059,"[0.8250187039375305, 0.8236199021339417]",encoding,14,135811,0.0-9.0,60fcec383dab931ff7a69163,6331f1b0a8414c625326e97a,6331f61090d5c50c1aea9f29,1.0,True,2.0,hnofuajabkh3hjqrm8gb,"9/26/2022, 1:59:46 PM",Chrome,main_task_5,chris,prolific_afc6,,"{'muct_id': '407', 'lighting': 'x', 'race_guess': 'u', 'gender_guess': 'm', 'quality': '3', 'quality_eyes': '3', 'quality_mouth': '3', 'quality_ears': '3', 'quality_hair': '3', 'quality_neck': '3', 'facial_hair': '3.0', 'notes': 'beard', 'race_common': 'black', 'gender_common': 'man'}","{'muct_id': '423', 'lighting': 'w', 'race_guess': 'b', 'gender_guess': 'm', 'quality': '3', 'quality_eyes': '3', 'quality_mouth': '3', 'quality_ears': '3', 'quality_hair': '3', 'quality_neck': '3', 'facial_hair': '1.0', 'notes': None, 'race_common': 'black', 'gender_common': 'man'}",,,,,,,,,,,,,,,,,,,,,,,,,,,,,,,,,,,,,,,,,,,,,,,,,,,,,,,,,
2249,6331f6a49cb434415f3c1c1e,2264,False,"['../stimuli/version1_gray_lm/id061_25R_U.png', '../stimuli/version1_gray_lm/id061_25L_C.png', '../stimuli/version1_gray_lm/id052_00C_D.png']",arrowdown,3.0,2.0,052,00C,D,white,man,"[0, 1]",061,"['25R', '25L']","['U', 'C']",white,man,0.8447660803794861,"[0.8407583832740784, 0.8510724902153015]",encoding,36,163869,0.0-33.0,612cf985fdf515920654eeff,6331f1b0a8414c625326e97a,6331f5f2ee3aa1b44b60bf1f,3.0,True,14.0,26o7jq95u69cmyl7q3tt,"9/26/2022, 2:59:48 PM",Chrome,main_task_5,chris,prolific_afc6,,"{'muct_id': '75', 'lighting': 'q', 'race_guess': 'w', 'gender_guess': 'm', 'quality': '3', 'quality_eyes': '3', 'quality_mouth': '3', 'quality_ears': '3', 'quality_hair': '3', 'quality_neck': '3', 'facial_hair': '4.0', 'notes': 'beard', 'race_common': 'white', 'gender_common': 'man'}","{'muct_id': '89', 'lighting': 'r', 'race_guess': 'w', 'gender_guess': 'm', 'quality': '3', 'quality_eyes': '3', 'quality_mouth': '3', 'quality_ears': '3', 'quality_hair': '3', 'quality_neck': '3', 'facial_hair': '2.0', 'notes': None, 'race_common': 'white', 'gender_common': 'man'}",,,,,,,,,,,,,,,,,,,,,,,,,,,,,,,,,,,,,,,,,,,,,,,,,,,,,,,,,
2250,6331f6a69cb434415f3c1c1f,2389,False,"['../stimuli/version1_gray_lm/id063_25L_D.png', '../stimuli/version1_gray_lm/id143_00C_U.png', '../stimuli/version1_gray_lm/id063_25R_C.png']",arrowright,2.0,1.0,143,00C,U,white,man,"[0, 2]",063,"['25L', '25R']","['D', 'C']",white,man,0.7832735776901245,"[0.8375473618507385, 0.8153520822525024]",encoding,16,139093,0.0-11.0,60fcec383dab931ff7a69163,6331f1b0a8414c625326e97a,6331f61090d5c50c1aea9f29,2.0,True,3.0,hnofuajabkh3hjqrm8gb,"9/26/2022, 1:59:49 PM",Chrome,main_task_5,chris,prolific_afc6,,"{'muct_id': '90', 'lighting': 'q', 'race_guess': 'u', 'gender_guess': 'm', 'quality': '2', 'quality_eyes': '3', 'quality_mouth': '3', 'quality_ears': '2', 'quality_hair': '3', 'quality_neck': '3', 'facial_hair': '4.0', 'notes': 'beard', 'race_common': 'white', 'gender_common': 'man'}","{'muct_id': '203', 'lighting': 'u', 'race_guess': 'i', 'gender_guess': 'm', 'quality': '2', 'quality_eyes': '2', 'quality_mouth': '3', 'quality_ears': '3', 'quality_hair': '3', 'quality_neck': '3', 'facial_hair': '2.0', 'notes': 'mouth', 'race_common': 'white', 'gender_common': 'man'}",,,,,,,,,,,,,,,,,,,,,,,,,,,,,,,,,,,,,,,,,,,,,,,,,,,,,,,,,
2251,6331f6a79cb434415f3c1c20,1765,False,"['../stimuli/version1_gray_lm/id145_25R_C.png', '../stimuli/version1_gray_lm/id145_00C_U.png', '../stimuli/version1_gray_lm/id100_25L_D.png']",arrowdown,3.0,2.0,100,25L,D,white,man,"[0, 1]",145,"['25R', '00C']","['C', 'U']",white,man,0.8430138230323792,"[0.8272145986557007, 0.820552408695221]",encoding,38,166165,0.0-35.0,612cf985fdf515920654eeff,6331f1b0a8414c625326e97a,6331f5f2ee3aa1b44b60bf1f,3.0,True,15.0,26o7jq95u69cmyl7q3tt,"9/26/2022, 2:59:50 PM",Chrome,main_task_5,chris,prolific_afc6,,"{'muct_id': '280', 'lighting': 'u', 'race_guess': 'w', 'gender_guess': 'm', 'quality': '3', 'quality_eyes': '3', 'quality_mouth': '3', 'quality_ears': '3', 'quality_hair': '3', 'quality_neck': '3', 'facial_hair': '0.0', 'notes': None, 'race_common': 'white', 'gender_common': 'man'}","{'muct_id': '230', 'lighting': 'u', 'race_guess': 'w', 'gender_guess': 'm', 'quality': '3', 'quality_eyes': '3', 'quality_mouth': '3', 'quality_ears': '3', 'quality_hair': '3', 'quality_neck': '3', 'facial_hair': '0.0', 'notes': 'hair', 'race_common': 'white', 'gender_common': 'man'}",,,,,,,,,,,,,,,,,,,,,,,,,,,,,,,,,,,,,,,,,,,,,,,,,,,,,,,,,
2252,6331f6a99cb434415f3c1c21,2327,False,"['../stimuli/version1_gray_lm/id149_25R_C.png', '../stimuli/version1_gray_lm/id073_25L_D.png', '../stimuli/version1_gray_lm/id073_00C_U.png']",arrowleft,1.0,0.0,149,25R,C,white,man,"[1, 2]",073,"['25L', '00C']","['D', 'U']",white,man,0.7760299444198608,"[0.8398234844207764, 0.8355368375778198]",encoding,18,142167,0.0-13.0,60fcec383dab931ff7a69163,6331f1b0a8414c625326e97a,6331f61090d5c50c1aea9f29,1.0,True,4.0,hnofuajabkh3hjqrm8gb,"9/26/2022, 1:59:53 PM",Chrome,main_task_5,chris,prolific_afc6,,"{'muct_id': '416', 'lighting': 'w', 'race_guess': 'w', 'gender_guess': 'm', 'quality': '3', 'quality_eyes': '3', 'quality_mouth': '3', 'quality_ears': '3', 'quality_hair': '3', 'quality_neck': '3', 'facial_hair': '2.0', 'notes': None, 'race_common': 'white', 'gender_common': 'man'}","{'muct_id': '225', 'lighting': 'u', 'race_guess': 'w', 'gender_guess': 'm', 'quality': '3', 'quality_eyes': '3', 'quality_mouth': '3', 'quality_ears': '3', 'quality_hair': '3', 'quality_neck': '3', 'facial_hair': '2.0', 'notes': None, 'race_common': 'white', 'gender_common': 'man'}",,,,,,,,,,,,,,,,,,,,,,,,,,,,,,,,,,,,,,,,,,,,,,,,,,,,,,,,,
2253,6331f6aa9cb434415f3c1c22,2698,False,"['../stimuli/version1_gray_lm/id064_25L_D.png', '../stimuli/version1_gray_lm/id001_25R_U.png', '../stimuli/version1_gray_lm/id064_00C_C.png']",arrowright,2.0,1.0,001,25R,U,black,man,"[0, 2]",064,"['25L', '00C']","['D', 'C']",black,man,0.7986511588096619,"[0.8417234420776367, 0.8430612683296204]",encoding,40,169313,0.0-37.0,612cf985fdf515920654eeff,6331f1b0a8414c625326e97a,6331f5f2ee3aa1b44b60bf1f,2.0,True,16.0,26o7jq95u69cmyl7q3tt,"9/26/2022, 2:59:53 PM",Chrome,main_task_5,chris,prolific_afc6,,"{'muct_id': '1', 'lighting': 'q', 'race_guess': 'b', 'gender_guess': 'm', 'quality': '3', 'quality_eyes': '3', 'quality_mouth': '3', 'quality_ears': '3', 'quality_hair': '3', 'quality_neck': '3', 'facial_hair': '1.0', 'notes': None, 'race_common': 'black', 'gender_common': 'man'}","{'muct_id': '204', 'lighting': 't', 'race_guess': 'b', 'gender_guess': 'm', 'quality': '3', 'quality_eyes': '3', 'quality_mouth': '3', 'quality_ears': '3', 'quality_hair': '3', 'quality_neck': '3', 'facial_hair': '1.0', 'notes': None, 'race_common': 'black', 'gender_common': 'man'}",,,,,,,,,,,,,,,,,,,,,,,,,,,,,,,,,,,,,,,,,,,,,,,,,,,,,,,,,
2254,6331f6ac9cb434415f3c1c23,2535,False,"['../stimuli/version1_gray_lm/id012_25R_U.png', '../stimuli/version1_gray_lm/id012_25L_C.png', '../stimuli/version1_gray_lm/id044_00C_D.png']",arrowdown,3.0,2.0,044,00C,D,white,man,"[0, 1]",012,"['25R', '25L']","['U', 'C']",white,man,0.8493353128433228,"[0.8580827713012695, 0.8423568606376648]",encoding,20,145490,0.0-15.0,60fcec383dab931ff7a69163,6331f1b0a8414c625326e97a,6331f61090d5c50c1aea9f29,3.0,True,5.0,hnofuajabkh3hjqrm8gb,"9/26/2022, 1:59:56 PM",Chrome,main_task_5,chris,prolific_afc6,,"{'muct_id': '60', 'lighting': 's', 'race_guess': 'u', 'gender_guess': 'm', 'quality': '3', 'quality_eyes': '3', 'quality_mouth': '3', 'quality_ears': '3', 'quality_hair': '3', 'quality_neck': '3', 'facial_hair': '2.0', 'notes': None, 'race_common': 'white', 'gender_common': 'man'}","{'muct_id': '12', 'lighting': 'q', 'race_guess': 'i', 'gender_guess': 'm', 'quality': '3', 'quality_eyes': '3', 'quality_mouth': '3', 'quality_ears': '3', 'quality_hair': '3', 'quality_neck': '3', 'facial_hair': '2.0', 'notes': None, 'race_common': 'white', 'gender_common': 'man'}",,,,,,,,,,,,,,,,,,,,,,,,,,,,,,,,,,,,,,,,,,,,,,,,,,,,,,,,,
2255,6331f6ad9cb434415f3c1c24,2462,False,"['../stimuli/version1_gray_lm/id081_00C_U.png', '../stimuli/version1_gray_lm/id081_25L_C.png', '../stimuli/version1_gray_lm/id004_25R_D.png']",arrowdown,3.0,2.0,004,25R,D,black,man,"[0, 1]",081,"['00C', '25L']","['U', 'C']",black,man,0.8541693687438965,"[0.7884091734886169, 0.8626909852027893]",encoding,42,172471,0.0-39.0,612cf985fdf515920654eeff,6331f1b0a8414c625326e97a,6331f5f2ee3aa1b44b60bf1f,3.0,True,17.0,26o7jq95u69cmyl7q3tt,"9/26/2022, 2:59:57 PM",Chrome,main_task_5,chris,prolific_afc6,,"{'muct_id': '4', 'lighting': 'q', 'race_guess': 'b', 'gender_guess': 'm', 'quality': '3', 'quality_eyes': '3', 'quality_mouth': '3', 'quality_ears': '3', 'quality_hair': '3', 'quality_neck': '3', 'facial_hair': '2.0', 'notes': None, 'race_common': 'black', 'gender_common': 'man'}","{'muct_id': '241', 'lighting': 't', 'race_guess': 'u', 'gender_guess': 'm', 'quality': '3', 'quality_eyes': '3', 'quality_mouth': '3', 'quality_ears': '3', 'quality_hair': '3', 'quality_neck': '3', 'facial_hair': '1.0', 'notes': 'mouth', 'race_common': 'black', 'gender_common': 'man'}",,,,,,,,,,,,,,,,,,,,,,,,,,,,,,,,,,,,,,,,,,,,,,,,,,,,,,,,,
2256,6331f6b09cb434415f3c1c25,2047,False,"['../stimuli/version1_gray_lm/id123_25R_C.png', '../stimuli/version1_gray_lm/id123_25L_D.png', '../stimuli/version1_gray_lm/id101_00C_U.png']",arrowdown,3.0,2.0,101,00C,U,white,woman,"[0, 1]",123,"['25R', '25L']","['C', 'D']",white,woman,0.8529199957847595,"[0.7788952589035034, 0.852514386177063]",encoding,44,175150,0.0-41.0,612cf985fdf515920654eeff,6331f1b0a8414c625326e97a,6331f5f2ee3aa1b44b60bf1f,3.0,True,18.0,26o7jq95u69cmyl7q3tt,"9/26/2022, 2:59:59 PM",Chrome,main_task_5,chris,prolific_afc6,,"{'muct_id': '281', 'lighting': 't', 'race_guess': 'w', 'gender_guess': 'w', 'quality': '3', 'quality_eyes': '3', 'quality_mouth': '3', 'quality_ears': '3', 'quality_hair': '3', 'quality_neck': '3', 'facial_hair': '0.0', 'notes': None, 'race_common': 'white', 'gender_common': 'woman'}","{'muct_id': '76', 'lighting': 'q', 'race_guess': 'w', 'gender_guess': 'w', 'quality': '2', 'quality_eyes': '2', 'quality_mouth': '3', 'quality_ears': '2', 'quality_hair': '2', 'quality_neck': '3', 'facial_hair': '0.0', 'notes': 'hair', 'race_common': 'white', 'gender_common': 'woman'}",,,,,,,,,,,,,,,,,,,,,,,,,,,,,,,,,,,,,,,,,,,,,,,,,,,,,,,,,
2257,6331f6b09cb434415f3c1c26,3249,False,"['../stimuli/version1_gray_lm/id137_00C_U.png', '../stimuli/version1_gray_lm/id036_25R_C.png', '../stimuli/version1_gray_lm/id137_25L_D.png']",arrowright,2.0,1.0,036,25R,C,black,man,"[0, 2]",137,"['00C', '25L']","['U', 'D']",black,man,0.786187469959259,"[0.8602765202522278, 0.8819496631622314]",encoding,22,149522,0.0-17.0,60fcec383dab931ff7a69163,6331f1b0a8414c625326e97a,6331f61090d5c50c1aea9f29,2.0,True,6.0,hnofuajabkh3hjqrm8gb,"9/26/2022, 2:00:00 PM",Chrome,main_task_5,chris,prolific_afc6,,"{'muct_id': '47', 'lighting': 'q', 'race_guess': 'b', 'gender_guess': 'u', 'quality': '3', 'quality_eyes': '3', 'quality_mouth': '3', 'quality_ears': '3', 'quality_hair': '3', 'quality_neck': '3', 'facial_hair': '0.0', 'notes': None, 'race_common': 'black', 'gender_common': 'man'}","{'muct_id': '617', 'lighting': 'y', 'race_guess': 'b', 'gender_guess': 'w', 'quality': '3', 'quality_eyes': '3', 'quality_mouth': '3', 'quality_ears': '3', 'quality_hair': '3', 'quality_neck': '3', 'facial_hair': '0.0', 'notes': 'mouth', 'race_common': 'black', 'gender_common': 'man'}",,,,,,,,,,,,,,,,,,,,,,,,,,,,,,,,,,,,,,,,,,,,,,,,,,,,,,,,,
2258,6331f6b39cb434415f3c1c27,2860,False,"['../stimuli/version1_gray_lm/id028_25R_U.png', '../stimuli/version1_gray_lm/id091_00C_D.png', '../stimuli/version1_gray_lm/id091_25L_C.png']",arrowleft,1.0,0.0,028,25R,U,black,man,"[1, 2]",091,"['00C', '25L']","['D', 'C']",black,man,0.820701539516449,"[0.8683218955993652, 0.8398050665855408]",encoding,46,178656,0.0-43.0,612cf985fdf515920654eeff,6331f1b0a8414c625326e97a,6331f5f2ee3aa1b44b60bf1f,1.0,True,19.0,26o7jq95u69cmyl7q3tt,"9/26/2022, 3:00:03 PM",Chrome,main_task_5,chris,prolific_afc6,,"{'muct_id': '38', 'lighting': 'q', 'race_guess': 'b', 'gender_guess': 'm', 'quality': '3', 'quality_eyes': '3', 'quality_mouth': '3', 'quality_ears': '3', 'quality_hair': '3', 'quality_neck': '3', 'facial_hair': '2.0', 'notes': None, 'race_common': 'black', 'gender_common': 'man'}","{'muct_id': '260', 'lighting': 't', 'race_guess': 'b', 'gender_guess': 'm', 'quality': '3', 'quality_eyes': '3', 'quality_mouth': '3', 'quality_ears': '3', 'quality_hair': '3', 'quality_neck': '3', 'facial_hair': '4.0', 'notes': 'beard', 'race_common': 'black', 'gender_common': 'man'}",,,,,,,,,,,,,,,,,,,,,,,,,,,,,,,,,,,,,,,,,,,,,,,,,,,,,,,,,
2259,6331f6b39cb434415f3c1c28,2395,False,"['../stimuli/version1_gray_lm/id140_25R_D.png', '../stimuli/version1_gray_lm/id144_25L_U.png', '../stimuli/version1_gray_lm/id140_00C_C.png']",arrowright,2.0,1.0,144,25L,U,black,woman,"[0, 2]",140,"['25R', '00C']","['D', 'C']",black,woman,0.7994329333305359,"[0.8608859777450562, 0.8432232737541199]",encoding,24,152742,0.0-19.0,60fcec383dab931ff7a69163,6331f1b0a8414c625326e97a,6331f61090d5c50c1aea9f29,2.0,True,7.0,hnofuajabkh3hjqrm8gb,"9/26/2022, 2:00:03 PM",Chrome,main_task_5,chris,prolific_afc6,,"{'muct_id': '214', 'lighting': 'u', 'race_guess': 'b', 'gender_guess': 'w', 'quality': '2', 'quality_eyes': '2', 'quality_mouth': '3', 'quality_ears': '3', 'quality_hair': '3', 'quality_neck': '3', 'facial_hair': '0.0', 'notes': None, 'race_common': 'black', 'gender_common': 'woman'}","{'muct_id': '624', 'lighting': 'y', 'race_guess': 'b', 'gender_guess': 'w', 'quality': '3', 'quality_eyes': '3', 'quality_mouth': '3', 'quality_ears': '3', 'quality_hair': '3', 'quality_neck': '3', 'facial_hair': '0.0', 'notes': 'headband, earring', 'race_common': 'black', 'gender_common': 'woman'}",,,,,,,,,,,,,,,,,,,,,,,,,,,,,,,,,,,,,,,,,,,,,,,,,,,,,,,,,
2260,6331f6b59cb434415f3c1c29,1431,False,"['../stimuli/version1_gray_lm/id052_00C_C.png', '../stimuli/version1_gray_lm/id052_25R_D.png', '../stimuli/version1_gray_lm/id093_25L_U.png']",arrowdown,3.0,2.0,093,25L,U,white,man,"[0, 1]",052,"['00C', '25R']","['C', 'D']",white,man,0.8253141641616821,"[0.8235117197036743, 0.8038879036903381]",encoding,26,154798,0.0-21.0,60fcec383dab931ff7a69163,6331f1b0a8414c625326e97a,6331f61090d5c50c1aea9f29,3.0,True,8.0,hnofuajabkh3hjqrm8gb,"9/26/2022, 2:00:05 PM",Chrome,main_task_5,chris,prolific_afc6,,"{'muct_id': '263', 'lighting': 'u', 'race_guess': 'w', 'gender_guess': 'm', 'quality': '3', 'quality_eyes': '3', 'quality_mouth': '3', 'quality_ears': '3', 'quality_hair': '3', 'quality_neck': '3', 'facial_hair': '2.0', 'notes': None, 'race_common': 'white', 'gender_common': 'man'}","{'muct_id': '75', 'lighting': 'q', 'race_guess': 'w', 'gender_guess': 'm', 'quality': '3', 'quality_eyes': '3', 'quality_mouth': '3', 'quality_ears': '3', 'quality_hair': '3', 'quality_neck': '3', 'facial_hair': '4.0', 'notes': 'beard', 'race_common': 'white', 'gender_common': 'man'}",,,,,,,,,,,,,,,,,,,,,,,,,,,,,,,,,,,,,,,,,,,,,,,,,,,,,,,,,
2261,6331f6b89cb434415f3c1c2a,4325,False,"['../stimuli/version1_gray_lm/id042_25R_U.png', '../stimuli/version1_gray_lm/id007_00C_D.png', '../stimuli/version1_gray_lm/id007_25L_C.png']",arrowleft,1.0,0.0,042,25R,U,white,woman,"[1, 2]",007,"['00C', '25L']","['D', 'C']",white,woman,0.8110836744308472,"[0.8601640462875366, 0.841883659362793]",encoding,48,183508,0.0-45.0,612cf985fdf515920654eeff,6331f1b0a8414c625326e97a,6331f5f2ee3aa1b44b60bf1f,1.0,True,20.0,26o7jq95u69cmyl7q3tt,"9/26/2022, 3:00:08 PM",Chrome,main_task_5,chris,prolific_afc6,,"{'muct_id': '57', 'lighting': 'r', 'race_guess': 'b', 'gender_guess': 'w', 'quality': '3', 'quality_eyes': '3', 'quality_mouth': '3', 'quality_ears': '3', 'quality_hair': '3', 'quality_neck': '3', 'facial_hair': '0.0', 'notes': 'earrings', 'race_common': 'white', 'gender_common': 'woman'}","{'muct_id': '7', 'lighting': 's', 'race_guess': 'u', 'gender_guess': 'w', 'quality': '3', 'quality_eyes': '3', 'quality_mouth': '3', 'quality_ears': '3', 'quality_hair': '3', 'quality_neck': '3', 'facial_hair': '0.0', 'notes': None, 'race_common': 'white', 'gender_common': 'woman'}",,,,,,,,,,,,,,,,,,,,,,,,,,,,,,,,,,,,,,,,,,,,,,,,,,,,,,,,,
2262,6331f6bd9cb434415f3c1c2b,4405,,"<p style='font-size: 150%'><b>You have finished Part 1!</b></p><p>Nice job! On this section, you averaged <b>90% accuracy</b>.</p><p>You're on track to earn a good bonus. Keep up the good work!</p><p>Click 'Next' to continue to Part 2.</p>",,,,,,,,,,,,,,,,,bonus_update,50,188488,0.0-47.0,612cf985fdf515920654eeff,6331f1b0a8414c625326e97a,6331f5f2ee3aa1b44b60bf1f,,,,26o7jq95u69cmyl7q3tt,"9/26/2022, 3:00:13 PM",Chrome,main_task_5,chris,prolific_afc6,,,,,encoding,1.46,,,,,,,,,,,,,,,,,,,,,,,,,,,,,,,,0,,,,,,,,,,,,,,,,,,,,,,
2263,6331f6be9cb434415f3c1c2c,7395,False,"['../stimuli/version1_gray_lm/id090_00C_C.png', '../stimuli/version1_gray_lm/id117_25R_D.png', '../stimuli/version1_gray_lm/id117_25L_U.png']",arrowleft,1.0,0.0,090,00C,C,black,man,"[1, 2]",117,"['25R', '25L']","['D', 'U']",black,man,0.8071134090423584,"[0.8589047789573669, 0.7983081936836243]",encoding,28,162935,0.0-23.0,60fcec383dab931ff7a69163,6331f1b0a8414c625326e97a,6331f61090d5c50c1aea9f29,1.0,True,9.0,hnofuajabkh3hjqrm8gb,"9/26/2022, 2:00:13 PM",Chrome,main_task_5,chris,prolific_afc6,,"{'muct_id': '259', 'lighting': 'v', 'race_guess': 'b', 'gender_guess': 'm', 'quality': '3', 'quality_eyes': '3', 'quality_mouth': '3', 'quality_ears': '3', 'quality_hair': '3', 'quality_neck': '3', 'facial_hair': '2.0', 'notes': None, 'race_common': 'black', 'gender_common': 'man'}","{'muct_id': '417', 'lighting': 'w', 'race_guess': 'b', 'gender_guess': 'm', 'quality': '3', 'quality_eyes': '3', 'quality_mouth': '3', 'quality_ears': '3', 'quality_hair': '3', 'quality_neck': '3', 'facial_hair': '1.0', 'notes': 'mouth', 'race_common': 'black', 'gender_common': 'man'}",,,,,,,,,,,,,,,,,,,,,,,,,,,,,,,,,,,,,,,,,,,,,,,,,,,,,,,,,
2264,6331f6c09cb434415f3c1c2d,2037,False,"['../stimuli/version1_gray_lm/id068_25R_C.png', '../stimuli/version1_gray_lm/id016_25L_U.png', '../stimuli/version1_gray_lm/id068_00C_D.png']",arrowright,2.0,1.0,016,25L,U,black,woman,"[0, 2]",068,"['25R', '00C']","['C', 'D']",black,woman,0.7409974336624146,"[0.7947366237640381, 0.8593959212303162]",encoding,30,165655,0.0-25.0,60fcec383dab931ff7a69163,6331f1b0a8414c625326e97a,6331f61090d5c50c1aea9f29,2.0,True,10.0,hnofuajabkh3hjqrm8gb,"9/26/2022, 2:00:16 PM",Chrome,main_task_5,chris,prolific_afc6,,"{'muct_id': '18', 'lighting': 'q', 'race_guess': 'b', 'gender_guess': 'w', 'quality': '3', 'quality_eyes': '3', 'quality_mouth': '3', 'quality_ears': '3', 'quality_hair': '3', 'quality_neck': '3', 'facial_hair': '0.0', 'notes': 'earrings', 'race_common': 'black', 'gender_common': 'woman'}","{'muct_id': '213', 'lighting': 'u', 'race_guess': 'b', 'gender_guess': 'w', 'quality': '3', 'quality_eyes': '3', 'quality_mouth': '3', 'quality_ears': '3', 'quality_hair': '3', 'quality_neck': '3', 'facial_hair': '0.0', 'notes': None, 'race_common': 'black', 'gender_common': 'woman'}",,,,,,,,,,,,,,,,,,,,,,,,,,,,,,,,,,,,,,,,,,,,,,,,,,,,,,,,,
2265,6331f6c59cb434415f3c1c2e,3489,False,"['../stimuli/version1_gray_lm/id099_25R_C.png', '../stimuli/version1_gray_lm/id080_25L_U.png', '../stimuli/version1_gray_lm/id080_00C_D.png']",arrowleft,1.0,0.0,099,25R,C,white,man,"[1, 2]",080,"['25L', '00C']","['U', 'D']",white,man,0.8158249855041504,"[0.7890594005584717, 0.8112560510635376]",encoding,32,169944,0.0-27.0,60fcec383dab931ff7a69163,6331f1b0a8414c625326e97a,6331f61090d5c50c1aea9f29,1.0,True,11.0,hnofuajabkh3hjqrm8gb,"9/26/2022, 2:00:20 PM",Chrome,main_task_5,chris,prolific_afc6,,"{'muct_id': '278', 'lighting': 't', 'race_guess': 'w', 'gender_guess': 'm', 'quality': '3', 'quality_eyes': '3', 'quality_mouth': '3', 'quality_ears': '3', 'quality_hair': '3', 'quality_neck': '3', 'facial_hair': '0.0', 'notes': None, 'race_common': 'white', 'gender_common': 'man'}","{'muct_id': '240', 'lighting': 'u', 'race_guess': 'w', 'gender_guess': 'm', 'quality': '3', 'quality_eyes': '3', 'quality_mouth': '3', 'quality_ears': '3', 'quality_hair': '3', 'quality_neck': '3', 'facial_hair': '0.0', 'notes': 'mouth', 'race_common': 'white', 'gender_common': 'man'}",,,,,,,,,,,,,,,,,,,,,,,,,,,,,,,,,,,,,,,,,,,,,,,,,,,,,,,,,
2266,6331f6cb9cb434415f3c1c2f,5364,False,"['../stimuli/version1_gray_lm/id148_25R_C.png', '../stimuli/version1_gray_lm/id148_00C_U.png', '../stimuli/version1_gray_lm/id076_25L_D.png']",arrowdown,3.0,2.0,076,25L,D,white,woman,"[0, 1]",148,"['25R', '00C']","['C', 'U']",white,woman,0.8689828515052795,"[0.8501661419868469, 0.7988367080688477]",encoding,34,175948,0.0-29.0,60fcec383dab931ff7a69163,6331f1b0a8414c625326e97a,6331f61090d5c50c1aea9f29,3.0,True,12.0,hnofuajabkh3hjqrm8gb,"9/26/2022, 2:00:26 PM",Chrome,main_task_5,chris,prolific_afc6,,"{'muct_id': '233', 'lighting': 'u', 'race_guess': 'w', 'gender_guess': 'w', 'quality': '3', 'quality_eyes': '3', 'quality_mouth': '3', 'quality_ears': '3', 'quality_hair': '3', 'quality_neck': '3', 'facial_hair': '0.0', 'notes': 'earrings', 'race_common': 'white', 'gender_common': 'woman'}","{'muct_id': '415', 'lighting': 'w', 'race_guess': 'w', 'gender_guess': 'w', 'quality': '3', 'quality_eyes': '3', 'quality_mouth': '3', 'quality_ears': '3', 'quality_hair': '3', 'quality_neck': '3', 'facial_hair': '0.0', 'notes': None, 'race_common': 'white', 'gender_common': 'woman'}",,,,,,,,,,,,,,,,,,,,,,,,,,,,,,,,,,,,,,,,,,,,,,,,,,,,,,,,,
2267,6331f6cd9cb434415f3c1c30,1942,False,"['../stimuli/version1_gray_lm/id131_25L_U.png', '../stimuli/version1_gray_lm/id002_00C_C.png', '../stimuli/version1_gray_lm/id002_25R_D.png']",arrowleft,1.0,0.0,131,25L,U,white,man,"[1, 2]",002,"['00C', '25R']","['C', 'D']",white,man,0.8370739221572876,"[0.8065407872200012, 0.8452699780464172]",encoding,36,178536,0.0-31.0,60fcec383dab931ff7a69163,6331f1b0a8414c625326e97a,6331f61090d5c50c1aea9f29,1.0,True,13.0,hnofuajabkh3hjqrm8gb,"9/26/2022, 2:00:29 PM",Chrome,main_task_5,chris,prolific_afc6,,"{'muct_id': '442', 'lighting': 'x', 'race_guess': 'w', 'gender_guess': 'm', 'quality': '3', 'quality_eyes': '3', 'quality_mouth': '3', 'quality_ears': '3', 'quality_hair': '3', 'quality_neck': '3', 'facial_hair': '2.0', 'notes': None, 'race_common': 'white', 'gender_common': 'man'}","{'muct_id': '2', 'lighting': 'r', 'race_guess': 'w', 'gender_guess': 'm', 'quality': '3', 'quality_eyes': '3', 'quality_mouth': '3', 'quality_ears': '3', 'quality_hair': '3', 'quality_neck': '3', 'facial_hair': '2.0', 'notes': 'eyes', 'race_common': 'white', 'gender_common': 'man'}",,,,,,,,,,,,,,,,,,,,,,,,,,,,,,,,,,,,,,,,,,,,,,,,,,,,,,,,,
2268,6331f6cf9cb434415f3c1c31,1513,False,"['../stimuli/version1_gray_lm/id051_25L_C.png', '../stimuli/version1_gray_lm/id151_25R_D.png', '../stimuli/version1_gray_lm/id051_00C_U.png']",arrowright,2.0,1.0,151,25R,D,white,woman,"[0, 2]",051,"['25L', '00C']","['C', 'U']",white,woman,0.828726053237915,"[0.8625381588935852, 0.8664557933807373]",encoding,38,180714,0.0-33.0,60fcec383dab931ff7a69163,6331f1b0a8414c625326e97a,6331f61090d5c50c1aea9f29,2.0,True,14.0,hnofuajabkh3hjqrm8gb,"9/26/2022, 2:00:31 PM",Chrome,main_task_5,chris,prolific_afc6,,"{'muct_id': '444', 'lighting': 'w', 'race_guess': 'w', 'gender_guess': 'w', 'quality': '3', 'quality_eyes': '3', 'quality_mouth': '3', 'quality_ears': '3', 'quality_hair': '3', 'quality_neck': '3', 'facial_hair': '0.0', 'notes': None, 'race_common': 'white', 'gender_common': 'woman'}","{'muct_id': '74', 'lighting': 'q', 'race_guess': 'w', 'gender_guess': 'w', 'quality': '3', 'quality_eyes': '3', 'quality_mouth': '3', 'quality_ears': '3', 'quality_hair': '3', 'quality_neck': '3', 'facial_hair': '0.0', 'notes': None, 'race_common': 'white', 'gender_common': 'woman'}",,,,,,,,,,,,,,,,,,,,,,,,,,,,,,,,,,,,,,,,,,,,,,,,,,,,,,,,,
2269,6331f6d09cb434415f3c1c32,2408,False,"['../stimuli/version1_gray_lm/id078_00C_U.png', '../stimuli/version1_gray_lm/id087_25L_D.png', '../stimuli/version1_gray_lm/id087_25R_C.png']",arrowleft,1.0,0.0,078,00C,U,latinx,man,"[1, 2]",087,"['25L', '25R']","['D', 'C']",latinx,man,0.8242474794387817,"[0.8512232899665833, 0.8183485865592957]",encoding_practice,3,97059,0.0-3.0-0.0,61002947d99d3eb1380553ca,6331f1b0a8414c625326e97a,6331f653ef9391b6772dad19,1.0,True,1.0,vdt8vfwl626ubga1m7oa,"9/26/2022, 3:00:27 PM",Chrome,main_task_5,chris,prolific_afc6,,,,,,,,,,,,,,,,,,,,,,,,,,,,,,,,,,,,,,,,,,,,,,,,,,,,,,,,,,,,
2270,6331f6d49cb434415f3c1c33,1884,False,"['../stimuli/version1_gray_lm/id023_00C_U.png', '../stimuli/version1_gray_lm/id087_25L_D.png', '../stimuli/version1_gray_lm/id087_25R_C.png']",arrowleft,1.0,0.0,023,00C,U,latinx,man,"[1, 2]",087,"['25L', '25R']","['D', 'C']",latinx,man,0.8121773600578308,"[0.8512232899665833, 0.8183485865592957]",encoding_practice,5,101855,0.0-4.0-0.0,61002947d99d3eb1380553ca,6331f1b0a8414c625326e97a,6331f653ef9391b6772dad19,1.0,True,2.0,vdt8vfwl626ubga1m7oa,"9/26/2022, 3:00:32 PM",Chrome,main_task_5,chris,prolific_afc6,,,,,,,,,,,,,,,,,,,,,,,,,,,,,,,,,,,,,,,,,,,,,,,,,,,,,,,,,,,,
2271,6331f6d59cb434415f3c1c34,4669,False,"['../stimuli/version1_gray_lm/id128_25L_U.png', '../stimuli/version1_gray_lm/id040_00C_C.png', '../stimuli/version1_gray_lm/id128_25R_D.png']",arrowright,2.0,1.0,040,00C,C,black,man,"[0, 2]",128,"['25L', '25R']","['U', 'D']",black,man,0.8272554278373718,"[0.8131529092788696, 0.7945041060447693]",encoding,40,186018,0.0-35.0,60fcec383dab931ff7a69163,6331f1b0a8414c625326e97a,6331f61090d5c50c1aea9f29,2.0,True,15.0,hnofuajabkh3hjqrm8gb,"9/26/2022, 2:00:36 PM",Chrome,main_task_5,chris,prolific_afc6,,"{'muct_id': '55', 'lighting': 'r', 'race_guess': 'b', 'gender_guess': 'm', 'quality': '3', 'quality_eyes': '3', 'quality_mouth': '3', 'quality_ears': '3', 'quality_hair': '3', 'quality_neck': '3', 'facial_hair': '3.0', 'notes': 'beard', 'race_common': 'black', 'gender_common': 'man'}","{'muct_id': '436', 'lighting': 'w', 'race_guess': 'b', 'gender_guess': 'm', 'quality': '3', 'quality_eyes': '3', 'quality_mouth': '3', 'quality_ears': '3', 'quality_hair': '3', 'quality_neck': '3', 'facial_hair': '3.0', 'notes': 'beard', 'race_common': 'black', 'gender_common': 'man'}",,,,,,,,,,,,,,,,,,,,,,,,,,,,,,,,,,,,,,,,,,,,,,,,,,,,,,,,,
2272,6331f6d89cb434415f3c1c35,2400,False,"['../stimuli/version1_gray_lm/id078_25L_D.png', '../stimuli/version1_gray_lm/id078_00C_C.png', '../stimuli/version1_gray_lm/id023_25R_U.png']",arrowdown,3.0,2.0,023,25R,U,latinx,man,"[0, 1]",078,"['25L', '00C']","['D', 'C']",latinx,man,0.8266948461532593,"[0.8509162664413452, 0.8935690522193909]",encoding_practice,7,105149,0.0-5.0-0.0,61002947d99d3eb1380553ca,6331f1b0a8414c625326e97a,6331f653ef9391b6772dad19,3.0,True,3.0,vdt8vfwl626ubga1m7oa,"9/26/2022, 3:00:35 PM",Chrome,main_task_5,chris,prolific_afc6,True,,,,,,,,,,,,,,,,,,,,,,,,,,,,,,,,,,,,,,,,,,,,,,,,,,,,,,,,,,,
2273,6331f6d89cb434415f3c1c36,2681,False,"['../stimuli/version1_gray_lm/id059_25R_C.png', '../stimuli/version1_gray_lm/id019_25L_D.png', '../stimuli/version1_gray_lm/id059_00C_U.png']",arrowright,2.0,1.0,019,25L,D,black,woman,"[0, 2]",059,"['25R', '00C']","['C', 'U']",black,woman,0.8795315027236938,"[0.809404730796814, 0.8568629622459412]",encoding,42,189477,0.0-37.0,60fcec383dab931ff7a69163,6331f1b0a8414c625326e97a,6331f61090d5c50c1aea9f29,2.0,True,16.0,hnofuajabkh3hjqrm8gb,"9/26/2022, 2:00:40 PM",Chrome,main_task_5,chris,prolific_afc6,,"{'muct_id': '23', 'lighting': 'q', 'race_guess': 'b', 'gender_guess': 'u', 'quality': '3', 'quality_eyes': '3', 'quality_mouth': '3', 'quality_ears': '3', 'quality_hair': '3', 'quality_neck': '3', 'facial_hair': '0.0', 'notes': None, 'race_common': 'black', 'gender_common': 'woman'}","{'muct_id': '86', 'lighting': 'q', 'race_guess': 'b', 'gender_guess': 'w', 'quality': '3', 'quality_eyes': '3', 'quality_mouth': '3', 'quality_ears': '3', 'quality_hair': '3', 'quality_neck': '3', 'facial_hair': '0.0', 'notes': 'earrings', 'race_common': 'black', 'gender_common': 'woman'}",,,,,,,,,,,,,,,,,,,,,,,,,,,,,,,,,,,,,,,,,,,,,,,,,,,,,,,,,
2274,6331f6d89cb434415f3c1c37,2646,False,"['../stimuli/objectome/1564.jpeg', '../stimuli/objectome/1527.jpeg', '../stimuli/objectome/1566.jpeg']",arrowright,2.0,1527.0,,,,,,,,,,,,,,filler,52,215683,0.0-49.0-0.0,612cf985fdf515920654eeff,6331f1b0a8414c625326e97a,6331f5f2ee3aa1b44b60bf1f,2.0,True,1.0,26o7jq95u69cmyl7q3tt,"9/26/2022, 3:00:40 PM",Chrome,main_task_5,chris,prolific_afc6,,,,,,,chairs,_031,chairs,_031,within,,chairs,"[1564, 1566]",_033,V3,,,,,,,,,,,,,,,,,,,,,,,,,,,,,,,,,,,,,,,,,,,,
2275,6331f6db9cb434415f3c1c38,1964,False,"['../stimuli/objectome/157.jpeg', '../stimuli/objectome/192.jpeg', '../stimuli/objectome/152.jpeg']",arrowright,2.0,192.0,,,,,,,,,,,,,,filler,54,218580,0.0-50.0-0.0,612cf985fdf515920654eeff,6331f1b0a8414c625326e97a,6331f5f2ee3aa1b44b60bf1f,2.0,True,2.0,26o7jq95u69cmyl7q3tt,"9/26/2022, 3:00:43 PM",Chrome,main_task_5,chris,prolific_afc6,,,,,,,chairs,_011,chairs,_011,within,,chairs,"[157, 152]",_001,V0,,,,,,,,,,,,,,,,,,,,,,,,,,,,,,,,,,,,,,,,,,,,
2276,6331f6dc9cb434415f3c1c39,3275,False,"['../stimuli/version1_gray_lm/id109_00C_C.png', '../stimuli/version1_gray_lm/id152_25R_D.png', '../stimuli/version1_gray_lm/id109_25L_U.png']",arrowright,2.0,1.0,152,25R,D,white,woman,"[0, 2]",109,"['00C', '25L']","['C', 'U']",white,woman,0.8466804623603821,"[0.8643267154693604, 0.8245269060134888]",encoding,44,193224,0.0-39.0,60fcec383dab931ff7a69163,6331f1b0a8414c625326e97a,6331f61090d5c50c1aea9f29,2.0,True,17.0,hnofuajabkh3hjqrm8gb,"9/26/2022, 2:00:44 PM",Chrome,main_task_5,chris,prolific_afc6,,"{'muct_id': '446', 'lighting': 'w', 'race_guess': 'w', 'gender_guess': 'w', 'quality': '3', 'quality_eyes': '3', 'quality_mouth': '3', 'quality_ears': '3', 'quality_hair': '3', 'quality_neck': '3', 'facial_hair': '0.0', 'notes': None, 'race_common': 'white', 'gender_common': 'woman'}","{'muct_id': '401', 'lighting': 'w', 'race_guess': 'w', 'gender_guess': 'w', 'quality': '3', 'quality_eyes': '3', 'quality_mouth': '3', 'quality_ears': '3', 'quality_hair': '3', 'quality_neck': '3', 'facial_hair': '0.0', 'notes': 'mouth', 'race_common': 'white', 'gender_common': 'woman'}",,,,,,,,,,,,,,,,,,,,,,,,,,,,,,,,,,,,,,,,,,,,,,,,,,,,,,,,,
2277,6331f6dd9cb434415f3c1c3a,1444,False,"['../stimuli/objectome/964.jpeg', '../stimuli/objectome/941.jpeg', '../stimuli/objectome/944.jpeg']",arrowleft,1.0,964.0,,,,,,,,,,,,,,filler,56,220671,0.0-51.0-0.0,612cf985fdf515920654eeff,6331f1b0a8414c625326e97a,6331f5f2ee3aa1b44b60bf1f,1.0,True,3.0,26o7jq95u69cmyl7q3tt,"9/26/2022, 3:00:45 PM",Chrome,main_task_5,chris,prolific_afc6,,,,,,,animals,LIONESS,animals,LIONESS,within,,animals,"[941, 944]",GORILLA,V3,,,,,,,,,,,,,,,,,,,,,,,,,,,,,,,,,,,,,,,,,,,,
2278,6331f6de9cb434415f3c1c3b,1682,False,"['../stimuli/version1_gray_lm/id133_00C_C.png', '../stimuli/version1_gray_lm/id133_25R_U.png', '../stimuli/version1_gray_lm/id046_25L_D.png']",arrowdown,3.0,2.0,046,25L,D,black,woman,"[0, 1]",133,"['00C', '25R']","['C', 'U']",black,woman,0.8773627877235413,"[0.8408057689666748, 0.800376832485199]",encoding,46,195449,0.0-41.0,60fcec383dab931ff7a69163,6331f1b0a8414c625326e97a,6331f61090d5c50c1aea9f29,3.0,True,18.0,hnofuajabkh3hjqrm8gb,"9/26/2022, 2:00:46 PM",Chrome,main_task_5,chris,prolific_afc6,,"{'muct_id': '63', 'lighting': 'q', 'race_guess': 'i', 'gender_guess': 'w', 'quality': '3', 'quality_eyes': '3', 'quality_mouth': '3', 'quality_ears': '3', 'quality_hair': '3', 'quality_neck': '3', 'facial_hair': '0.0', 'notes': None, 'race_common': 'black', 'gender_common': 'woman'}","{'muct_id': '601', 'lighting': 'y', 'race_guess': 'b', 'gender_guess': 'w', 'quality': '3', 'quality_eyes': '3', 'quality_mouth': '3', 'quality_ears': '3', 'quality_hair': '3', 'quality_neck': '3', 'facial_hair': '0.0', 'notes': 'mouth', 'race_common': 'black', 'gender_common': 'woman'}",,,,,,,,,,,,,,,,,,,,,,,,,,,,,,,,,,,,,,,,,,,,,,,,,,,,,,,,,
2279,6331f6e09cb434415f3c1c3c,1419,False,"['../stimuli/objectome/2270.jpeg', '../stimuli/objectome/2254.jpeg', '../stimuli/objectome/944.jpeg']",arrowdown,3.0,944.0,,,,,,,,,,,,,,filler,59,223660,0.0-53.0,612cf985fdf515920654eeff,6331f1b0a8414c625326e97a,6331f5f2ee3aa1b44b60bf1f,3.0,True,4.0,26o7jq95u69cmyl7q3tt,"9/26/2022, 3:00:48 PM",Chrome,main_task_5,chris,prolific_afc6,,,,,,,animals,GORILLA,animals,GORILLA,within,,animals,"[2270, 2254]",breed_pug,V3,,,,,,,,,,,,,,,,,,,,,,,,,,,,,,,,,,,,,,,,,,,,
2280,6331f6e39cb434415f3c1c3d,4397,False,"['../stimuli/version1_gray_lm/id145_25R_C.png', '../stimuli/version1_gray_lm/id047_25L_U.png', '../stimuli/version1_gray_lm/id047_00C_D.png']",arrowleft,1.0,0.0,145,25R,C,white,man,"[1, 2]",047,"['25L', '00C']","['U', 'D']",white,man,0.8272145986557007,"[0.8087530136108398, 0.8497259020805359]",encoding,48,200592,0.0-43.0,60fcec383dab931ff7a69163,6331f1b0a8414c625326e97a,6331f61090d5c50c1aea9f29,1.0,True,19.0,hnofuajabkh3hjqrm8gb,"9/26/2022, 2:00:51 PM",Chrome,main_task_5,chris,prolific_afc6,,"{'muct_id': '230', 'lighting': 'u', 'race_guess': 'w', 'gender_guess': 'm', 'quality': '3', 'quality_eyes': '3', 'quality_mouth': '3', 'quality_ears': '3', 'quality_hair': '3', 'quality_neck': '3', 'facial_hair': '0.0', 'notes': 'hair', 'race_common': 'white', 'gender_common': 'man'}","{'muct_id': '64', 'lighting': 'q', 'race_guess': 'w', 'gender_guess': 'm', 'quality': '3', 'quality_eyes': '3', 'quality_mouth': '3', 'quality_ears': '3', 'quality_hair': '3', 'quality_neck': '3', 'facial_hair': '0.0', 'notes': None, 'race_common': 'white', 'gender_common': 'man'}",,,,,,,,,,,,,,,,,,,,,,,,,,,,,,,,,,,,,,,,,,,,,,,,,,,,,,,,,
2281,6331f6e49cb434415f3c1c3e,2854,False,"['../stimuli/objectome/1462.jpeg', '../stimuli/objectome/1376.jpeg', '../stimuli/objectome/1368.jpeg']",arrowleft,1.0,1462.0,,,,,,,,,,,,,,filler,61,227181,0.0-55.0,612cf985fdf515920654eeff,6331f1b0a8414c625326e97a,6331f5f2ee3aa1b44b60bf1f,1.0,True,5.0,26o7jq95u69cmyl7q3tt,"9/26/2022, 3:00:51 PM",Chrome,main_task_5,chris,prolific_afc6,,,,,,,chairs,_014,chairs,_014,within,,chairs,"[1376, 1368]",_010,V3,,,,,,,,,,,,,,,,,,,,,,,,,,,,,,,,,,,,,,,,,,,,
2282,6331f6e69cb434415f3c1c3f,1779,False,"['../stimuli/objectome/1261.jpeg', '../stimuli/objectome/1550.jpeg', '../stimuli/objectome/1246.jpeg']",arrowright,2.0,1550.0,,,,,,,,,,,,,,filler,63,229752,0.0-57.0,612cf985fdf515920654eeff,6331f1b0a8414c625326e97a,6331f5f2ee3aa1b44b60bf1f,2.0,True,6.0,26o7jq95u69cmyl7q3tt,"9/26/2022, 3:00:54 PM",Chrome,main_task_5,chris,prolific_afc6,,,,,,,chairs,_031,chairs,_031,within,,chairs,"[1261, 1246]",_001,V3,,,,,,,,,,,,,,,,,,,,,,,,,,,,,,,,,,,,,,,,,,,,
2283,6331f6e99cb434415f3c1c40,4733,False,"['../stimuli/version1_gray_lm/id057_00C_D.png', '../stimuli/version1_gray_lm/id105_25R_C.png', '../stimuli/version1_gray_lm/id105_25L_U.png']",arrowleft,1.0,0.0,057,00C,D,black,man,"[1, 2]",105,"['25R', '25L']","['C', 'U']",black,man,0.8576472401618958,"[0.8070216774940491, 0.8225566744804382]",encoding,50,206166,0.0-45.0,60fcec383dab931ff7a69163,6331f1b0a8414c625326e97a,6331f61090d5c50c1aea9f29,1.0,True,20.0,hnofuajabkh3hjqrm8gb,"9/26/2022, 2:00:57 PM",Chrome,main_task_5,chris,prolific_afc6,,"{'muct_id': '83', 'lighting': 'r', 'race_guess': 'b', 'gender_guess': 'm', 'quality': '3', 'quality_eyes': '3', 'quality_mouth': '3', 'quality_ears': '3', 'quality_hair': '3', 'quality_neck': '3', 'facial_hair': '3.0', 'notes': None, 'race_common': 'black', 'gender_common': 'man'}","{'muct_id': '290', 'lighting': 't', 'race_guess': 'b', 'gender_guess': 'm', 'quality': '3', 'quality_eyes': '3', 'quality_mouth': '3', 'quality_ears': '3', 'quality_hair': '3', 'quality_neck': '3', 'facial_hair': '2.0', 'notes': None, 'race_common': 'black', 'gender_common': 'man'}",,,,,,,,,,,,,,,,,,,,,,,,,,,,,,,,,,,,,,,,,,,,,,,,,,,,,,,,,
2284,6331f6e99cb434415f3c1c41,2742,False,"['../stimuli/objectome/1566.jpeg', '../stimuli/objectome/1596.jpeg', '../stimuli/objectome/1455.jpeg']",arrowdown,3.0,1455.0,,,,,,,,,,,,,,filler,65,233053,0.0-59.0,612cf985fdf515920654eeff,6331f1b0a8414c625326e97a,6331f5f2ee3aa1b44b60bf1f,3.0,True,7.0,26o7jq95u69cmyl7q3tt,"9/26/2022, 3:00:57 PM",Chrome,main_task_5,chris,prolific_afc6,,,,,,,chairs,_014,chairs,_014,within,,chairs,"[1566, 1596]",_033,V3,,,,,,,,,,,,,,,,,,,,,,,,,,,,,,,,,,,,,,,,,,,,
2285,6331f6ec9cb434415f3c1c42,1731,False,"['../stimuli/objectome/1261.jpeg', '../stimuli/objectome/1246.jpeg', '../stimuli/objectome/1550.jpeg']",arrowdown,3.0,1550.0,,,,,,,,,,,,,,filler,67,235399,0.0-61.0,612cf985fdf515920654eeff,6331f1b0a8414c625326e97a,6331f5f2ee3aa1b44b60bf1f,3.0,True,8.0,26o7jq95u69cmyl7q3tt,"9/26/2022, 3:01:00 PM",Chrome,main_task_5,chris,prolific_afc6,,,,,,,chairs,_031,chairs,_031,within,,chairs,"[1261, 1246]",_001,V3,,,,,,,,,,,,,,,,,,,,,,,,,,,,,,,,,,,,,,,,,,,,
2286,6331f6ef9cb434415f3c1c43,2820,False,"['../stimuli/objectome/1205.jpeg', '../stimuli/objectome/1227.jpeg', '../stimuli/objectome/2768.jpeg']",arrowdown,3.0,2768.0,,,,,,,,,,,,,,filler,69,238722,0.0-63.0,612cf985fdf515920654eeff,6331f1b0a8414c625326e97a,6331f5f2ee3aa1b44b60bf1f,3.0,True,9.0,26o7jq95u69cmyl7q3tt,"9/26/2022, 3:01:03 PM",Chrome,main_task_5,chris,prolific_afc6,,,,,,,animals,hedgehog,animals,hedgehog,within,,animals,"[1205, 1227]",TURTLE_L,V3,,,,,,,,,,,,,,,,,,,,,,,,,,,,,,,,,,,,,,,,,,,,
2287,6331f6f19cb434415f3c1c44,2274,False,"['../stimuli/version1_gray_lm/id005_00C_U.png', '../stimuli/version1_gray_lm/id005_25R_C.png', '../stimuli/version1_gray_lm/id022_25L_D.png']",arrowdown,3.0,2.0,022,25L,D,black,woman,"[0, 1]",005,"['00C', '25R']","['U', 'C']",black,woman,0.8579239845275879,"[0.8390929698944092, 0.7777500748634338]",encoding,10,130557,0.0-7.0,61002947d99d3eb1380553ca,6331f1b0a8414c625326e97a,6331f653ef9391b6772dad19,3.0,True,1.0,vdt8vfwl626ubga1m7oa,"9/26/2022, 3:01:01 PM",Chrome,main_task_5,chris,prolific_afc6,,"{'muct_id': '26', 'lighting': 'q', 'race_guess': 'b', 'gender_guess': 'w', 'quality': '3', 'quality_eyes': '3', 'quality_mouth': '3', 'quality_ears': '3', 'quality_hair': '3', 'quality_neck': '3', 'facial_hair': '0.0', 'notes': 'earrings', 'race_common': 'black', 'gender_common': 'woman'}","{'muct_id': '5', 'lighting': 'q', 'race_guess': 'b', 'gender_guess': 'w', 'quality': '3', 'quality_eyes': '3', 'quality_mouth': '3', 'quality_ears': '3', 'quality_hair': '3', 'quality_neck': '3', 'facial_hair': '0.0', 'notes': 'hat', 'race_common': 'black', 'gender_common': 'woman'}",,,,,,,,,,,,,,,,,,,,,,,,,,,,,,,,,,,,,,,,,,,,,,,,,,,,,,,,,
2288,6331f6f49cb434415f3c1c45,1831,False,"['../stimuli/version1_gray_lm/id017_25L_D.png', '../stimuli/version1_gray_lm/id017_00C_C.png', '../stimuli/version1_gray_lm/id151_25R_U.png']",arrowdown,3.0,2.0,151,25R,U,white,woman,"[0, 1]",017,"['25L', '00C']","['D', 'C']",white,woman,0.8156341314315796,"[0.8347819447517395, 0.8016844391822815]",encoding,12,133210,0.0-9.0,61002947d99d3eb1380553ca,6331f1b0a8414c625326e97a,6331f653ef9391b6772dad19,3.0,True,2.0,vdt8vfwl626ubga1m7oa,"9/26/2022, 3:01:03 PM",Chrome,main_task_5,chris,prolific_afc6,,"{'muct_id': '444', 'lighting': 'w', 'race_guess': 'w', 'gender_guess': 'w', 'quality': '3', 'quality_eyes': '3', 'quality_mouth': '3', 'quality_ears': '3', 'quality_hair': '3', 'quality_neck': '3', 'facial_hair': '0.0', 'notes': None, 'race_common': 'white', 'gender_common': 'woman'}","{'muct_id': '19', 'lighting': 'r', 'race_guess': 'w', 'gender_guess': 'w', 'quality': '3', 'quality_eyes': '3', 'quality_mouth': '3', 'quality_ears': '3', 'quality_hair': '3', 'quality_neck': '3', 'facial_hair': '0.0', 'notes': None, 'race_common': 'white', 'gender_common': 'woman'}",,,,,,,,,,,,,,,,,,,,,,,,,,,,,,,,,,,,,,,,,,,,,,,,,,,,,,,,,
2289,6331f6f49cb434415f3c1c46,10250,,"<p style='font-size: 150%'><b>You have finished Part 1!</b></p><p>Nice job! On this section, you averaged <b>95% accuracy</b>.</p><p>You're on track to earn a good bonus. Keep up the good work!</p><p>Click 'Next' to continue to Part 2.</p>",,,,,,,,,,,,,,,,,bonus_update,52,217208,0.0-47.0,60fcec383dab931ff7a69163,6331f1b0a8414c625326e97a,6331f61090d5c50c1aea9f29,,,,hnofuajabkh3hjqrm8gb,"9/26/2022, 2:01:08 PM",Chrome,main_task_5,chris,prolific_afc6,,,,,encoding,1.63,,,,,,,,,,,,,,,,,,,,,,,,,,,,,,,,0,,,,,,,,,,,,,,,,,,,,,,
2290,6331f6f69cb434415f3c1c47,6772,False,"['../stimuli/objectome/2841.jpeg', '../stimuli/objectome/3031.jpeg', '../stimuli/objectome/2868.jpeg']",arrowright,2.0,3031.0,,,,,,,,,,,,,,filler,71,246054,0.0-65.0,612cf985fdf515920654eeff,6331f1b0a8414c625326e97a,6331f5f2ee3aa1b44b60bf1f,2.0,True,10.0,26o7jq95u69cmyl7q3tt,"9/26/2022, 3:01:10 PM",Chrome,main_task_5,chris,prolific_afc6,,,,,,,planes,sopwith,planes,sopwith,within,,planes,"[2841, 2868]",mig29,V3,,,,,,,,,,,,,,,,,,,,,,,,,,,,,,,,,,,,,,,,,,,,
2291,6331f6f79cb434415f3c1c48,2608,False,"['../stimuli/version1_gray_lm/id016_25R_D.png', '../stimuli/version1_gray_lm/id068_25L_U.png', '../stimuli/version1_gray_lm/id016_00C_C.png']",arrowright,2.0,1.0,068,25L,U,black,woman,"[0, 2]",016,"['25R', '00C']","['D', 'C']",black,woman,0.8137908577919006,"[0.846680760383606, 0.8335258364677429]",encoding,14,136385,0.0-11.0,61002947d99d3eb1380553ca,6331f1b0a8414c625326e97a,6331f653ef9391b6772dad19,2.0,True,3.0,vdt8vfwl626ubga1m7oa,"9/26/2022, 3:01:07 PM",Chrome,main_task_5,chris,prolific_afc6,,"{'muct_id': '213', 'lighting': 'u', 'race_guess': 'b', 'gender_guess': 'w', 'quality': '3', 'quality_eyes': '3', 'quality_mouth': '3', 'quality_ears': '3', 'quality_hair': '3', 'quality_neck': '3', 'facial_hair': '0.0', 'notes': None, 'race_common': 'black', 'gender_common': 'woman'}","{'muct_id': '18', 'lighting': 'q', 'race_guess': 'b', 'gender_guess': 'w', 'quality': '3', 'quality_eyes': '3', 'quality_mouth': '3', 'quality_ears': '3', 'quality_hair': '3', 'quality_neck': '3', 'facial_hair': '0.0', 'notes': 'earrings', 'race_common': 'black', 'gender_common': 'woman'}",,,,,,,,,,,,,,,,,,,,,,,,,,,,,,,,,,,,,,,,,,,,,,,,,,,,,,,,,
2292,6331f6fa9cb434415f3c1c49,2522,False,"['../stimuli/version1_gray_lm/id089_25L_D.png', '../stimuli/version1_gray_lm/id089_25R_C.png', '../stimuli/version1_gray_lm/id044_00C_U.png']",arrowdown,3.0,2.0,044,00C,U,white,man,"[0, 1]",089,"['25L', '25R']","['D', 'C']",white,man,0.8481819033622742,"[0.8646520972251892, 0.832765519618988]",encoding,16,139604,0.0-13.0,61002947d99d3eb1380553ca,6331f1b0a8414c625326e97a,6331f653ef9391b6772dad19,3.0,True,4.0,vdt8vfwl626ubga1m7oa,"9/26/2022, 3:01:10 PM",Chrome,main_task_5,chris,prolific_afc6,,"{'muct_id': '60', 'lighting': 's', 'race_guess': 'u', 'gender_guess': 'm', 'quality': '3', 'quality_eyes': '3', 'quality_mouth': '3', 'quality_ears': '3', 'quality_hair': '3', 'quality_neck': '3', 'facial_hair': '2.0', 'notes': None, 'race_common': 'white', 'gender_common': 'man'}","{'muct_id': '255', 'lighting': 't', 'race_guess': 'w', 'gender_guess': 'm', 'quality': '3', 'quality_eyes': '3', 'quality_mouth': '3', 'quality_ears': '3', 'quality_hair': '3', 'quality_neck': '3', 'facial_hair': '2.0', 'notes': None, 'race_common': 'white', 'gender_common': 'man'}",,,,,,,,,,,,,,,,,,,,,,,,,,,,,,,,,,,,,,,,,,,,,,,,,,,,,,,,,
2293,6331f6fb9cb434415f3c1c4a,3552,False,"['../stimuli/objectome/2807.jpeg', '../stimuli/objectome/3003.jpeg', '../stimuli/objectome/3022.jpeg']",arrowleft,1.0,2807.0,,,,,,,,,,,,,,filler,73,250235,0.0-67.0,612cf985fdf515920654eeff,6331f1b0a8414c625326e97a,6331f5f2ee3aa1b44b60bf1f,1.0,True,11.0,26o7jq95u69cmyl7q3tt,"9/26/2022, 3:01:14 PM",Chrome,main_task_5,chris,prolific_afc6,,,,,,,planes,junkers88,planes,junkers88,within,,planes,"[3003, 3022]",sopwith,V3,,,,,,,,,,,,,,,,,,,,,,,,,,,,,,,,,,,,,,,,,,,,
2294,6331f6fe9cb434415f3c1c4b,3423,False,"['../stimuli/version1_gray_lm/id021_25R_U.png', '../stimuli/version1_gray_lm/id086_00C_D.png', '../stimuli/version1_gray_lm/id021_25L_C.png']",arrowdown,2.0,1.0,086,00C,D,black,man,"[0, 2]",021,"['25R', '25L']","['U', 'C']",black,man,0.8587251901626587,"[0.8069405555725098, 0.8428661227226257]",encoding,18,143780,0.0-15.0,61002947d99d3eb1380553ca,6331f1b0a8414c625326e97a,6331f653ef9391b6772dad19,3.0,False,5.0,vdt8vfwl626ubga1m7oa,"9/26/2022, 3:01:14 PM",Chrome,main_task_5,chris,prolific_afc6,,"{'muct_id': '250', 'lighting': 't', 'race_guess': 'b', 'gender_guess': 'm', 'quality': '3', 'quality_eyes': '3', 'quality_mouth': '3', 'quality_ears': '3', 'quality_hair': '3', 'quality_neck': '3', 'facial_hair': '1.0', 'notes': None, 'race_common': 'black', 'gender_common': 'man'}","{'muct_id': '25', 'lighting': 'r', 'race_guess': 'b', 'gender_guess': 'm', 'quality': '3', 'quality_eyes': '3', 'quality_mouth': '3', 'quality_ears': '3', 'quality_hair': '3', 'quality_neck': '3', 'facial_hair': '2.0', 'notes': None, 'race_common': 'black', 'gender_common': 'man'}",,,,,,,,,,,,,,,,,,,,,,,,,,,,,,,,,,,,,,,,,,,,,,,,,,,,,,,,,
2295,6331f7009cb434415f3c1c4c,4905,False,"['../stimuli/objectome/1622.jpeg', '../stimuli/objectome/2415.jpeg', '../stimuli/objectome/1635.jpeg']",arrowright,2.0,2415.0,,,,,,,,,,,,,,filler,75,255751,0.0-69.0,612cf985fdf515920654eeff,6331f1b0a8414c625326e97a,6331f5f2ee3aa1b44b60bf1f,2.0,True,12.0,26o7jq95u69cmyl7q3tt,"9/26/2022, 3:01:20 PM",Chrome,main_task_5,chris,prolific_afc6,,,,,,,planes,f16,planes,f16,within,,planes,"[1622, 1635]",_05_future,V3,,,,,,,,,,,,,,,,,,,,,,,,,,,,,,,,,,,,,,,,,,,,
2296,6331f7029cb434415f3c1c4d,2539,False,"['../stimuli/version1_gray_lm/id144_25L_D.png', '../stimuli/version1_gray_lm/id144_25R_C.png', '../stimuli/version1_gray_lm/id142_00C_U.png']",arrowright,3.0,2.0,142,00C,U,black,woman,"[0, 1]",144,"['25L', '25R']","['D', 'C']",black,woman,0.8080773949623108,"[0.8706281185150146, 0.7979380488395691]",encoding,20,147003,0.0-17.0,61002947d99d3eb1380553ca,6331f1b0a8414c625326e97a,6331f653ef9391b6772dad19,2.0,False,6.0,vdt8vfwl626ubga1m7oa,"9/26/2022, 3:01:17 PM",Chrome,main_task_5,chris,prolific_afc6,,"{'muct_id': '87', 'lighting': 'r', 'race_guess': 'b', 'gender_guess': 'w', 'quality': '3', 'quality_eyes': '3', 'quality_mouth': '3', 'quality_ears': '3', 'quality_hair': '3', 'quality_neck': '3', 'facial_hair': '0.0', 'notes': 'earrings hair', 'race_common': 'black', 'gender_common': 'woman'}","{'muct_id': '214', 'lighting': 'u', 'race_guess': 'b', 'gender_guess': 'w', 'quality': '2', 'quality_eyes': '2', 'quality_mouth': '3', 'quality_ears': '3', 'quality_hair': '3', 'quality_neck': '3', 'facial_hair': '0.0', 'notes': None, 'race_common': 'black', 'gender_common': 'woman'}",,,,,,,,,,,,,,,,,,,,,,,,,,,,,,,,,,,,,,,,,,,,,,,,,,,,,,,,,
2297,6331f7039cb434415f3c1c4e,1911,False,"['../stimuli/objectome/1431.jpeg', '../stimuli/objectome/1409.jpeg', '../stimuli/objectome/1471.jpeg']",arrowdown,3.0,1471.0,,,,,,,,,,,,,,filler,77,258405,0.0-71.0,612cf985fdf515920654eeff,6331f1b0a8414c625326e97a,6331f5f2ee3aa1b44b60bf1f,3.0,True,13.0,26o7jq95u69cmyl7q3tt,"9/26/2022, 3:01:23 PM",Chrome,main_task_5,chris,prolific_afc6,,,,,,,chairs,_014,chairs,_014,within,,chairs,"[1431, 1409]",_011,V3,,,,,,,,,,,,,,,,,,,,,,,,,,,,,,,,,,,,,,,,,,,,
2298,6331f7059cb434415f3c1c4f,2551,False,"['../stimuli/version1_gray_lm/id153_00C_C.png', '../stimuli/version1_gray_lm/id153_25R_U.png', '../stimuli/version1_gray_lm/id152_25L_D.png']",arrowdown,3.0,2.0,152,25L,D,white,woman,"[0, 1]",153,"['00C', '25R']","['C', 'U']",white,woman,0.8412463068962097,"[0.8184559345245361, 0.7633529901504517]",encoding,22,150274,0.0-19.0,61002947d99d3eb1380553ca,6331f1b0a8414c625326e97a,6331f653ef9391b6772dad19,3.0,True,7.0,vdt8vfwl626ubga1m7oa,"9/26/2022, 3:01:20 PM",Chrome,main_task_5,chris,prolific_afc6,,"{'muct_id': '446', 'lighting': 'w', 'race_guess': 'w', 'gender_guess': 'w', 'quality': '3', 'quality_eyes': '3', 'quality_mouth': '3', 'quality_ears': '3', 'quality_hair': '3', 'quality_neck': '3', 'facial_hair': '0.0', 'notes': None, 'race_common': 'white', 'gender_common': 'woman'}","{'muct_id': '437', 'lighting': 'x', 'race_guess': 'w', 'gender_guess': 'w', 'quality': '3', 'quality_eyes': '3', 'quality_mouth': '3', 'quality_ears': '3', 'quality_hair': '3', 'quality_neck': '3', 'facial_hair': '0.0', 'notes': 'hair', 'race_common': 'white', 'gender_common': 'woman'}",,,,,,,,,,,,,,,,,,,,,,,,,,,,,,,,,,,,,,,,,,,,,,,,,,,,,,,,,
2299,6331f7079cb434415f3c1c50,1540,False,"['../stimuli/version1_gray_lm/id039_00C_D.png', '../stimuli/version1_gray_lm/id039_25L_C.png', '../stimuli/version1_gray_lm/id092_25R_U.png']",arrowdown,3.0,2.0,092,25R,U,white,man,"[0, 1]",039,"['00C', '25L']","['D', 'C']",white,man,0.7671474814414978,"[0.8948837518692017, 0.8359730243682861]",encoding,24,152474,0.0-21.0,61002947d99d3eb1380553ca,6331f1b0a8414c625326e97a,6331f653ef9391b6772dad19,3.0,True,8.0,vdt8vfwl626ubga1m7oa,"9/26/2022, 3:01:23 PM",Chrome,main_task_5,chris,prolific_afc6,,"{'muct_id': '261', 'lighting': 'v', 'race_guess': 'w', 'gender_guess': 'm', 'quality': '2', 'quality_eyes': '2', 'quality_mouth': '3', 'quality_ears': '3', 'quality_hair': '3', 'quality_neck': '3', 'facial_hair': '0.0', 'notes': None, 'race_common': 'white', 'gender_common': 'man'}","{'muct_id': '52', 'lighting': 'q', 'race_guess': 'w', 'gender_guess': 'm', 'quality': '3', 'quality_eyes': '3', 'quality_mouth': '3', 'quality_ears': '3', 'quality_hair': '3', 'quality_neck': '3', 'facial_hair': '0.0', 'notes': None, 'race_common': 'white', 'gender_common': 'man'}",,,,,,,,,,,,,,,,,,,,,,,,,,,,,,,,,,,,,,,,,,,,,,,,,,,,,,,,,
2300,6331f70a9cb434415f3c1c51,2340,False,"['../stimuli/version1_gray_lm/id004_00C_U.png', '../stimuli/version1_gray_lm/id004_25R_D.png', '../stimuli/version1_gray_lm/id056_25L_C.png']",arrowdown,3.0,2.0,056,25L,C,black,man,"[0, 1]",004,"['00C', '25R']","['U', 'D']",black,man,0.8336806297302246,"[0.8110041618347168, 0.8541693687438965]",encoding,26,155410,0.0-23.0,61002947d99d3eb1380553ca,6331f1b0a8414c625326e97a,6331f653ef9391b6772dad19,3.0,True,9.0,vdt8vfwl626ubga1m7oa,"9/26/2022, 3:01:26 PM",Chrome,main_task_5,chris,prolific_afc6,,"{'muct_id': '82', 'lighting': 'q', 'race_guess': 'b', 'gender_guess': 'm', 'quality': '3', 'quality_eyes': '3', 'quality_mouth': '3', 'quality_ears': '3', 'quality_hair': '3', 'quality_neck': '3', 'facial_hair': '1.0', 'notes': None, 'race_common': 'black', 'gender_common': 'man'}","{'muct_id': '4', 'lighting': 'q', 'race_guess': 'b', 'gender_guess': 'm', 'quality': '3', 'quality_eyes': '3', 'quality_mouth': '3', 'quality_ears': '3', 'quality_hair': '3', 'quality_neck': '3', 'facial_hair': '2.0', 'notes': None, 'race_common': 'black', 'gender_common': 'man'}",,,,,,,,,,,,,,,,,,,,,,,,,,,,,,,,,,,,,,,,,,,,,,,,,,,,,,,,,
2301,6331f70b9cb434415f3c1c52,7553,False,"['../stimuli/objectome/1495.jpeg', '../stimuli/objectome/2869.jpeg', '../stimuli/objectome/2858.jpeg']",arrowleft,1.0,1495.0,,,,,,,,,,,,,,filler,79,266563,0.0-73.0,612cf985fdf515920654eeff,6331f1b0a8414c625326e97a,6331f5f2ee3aa1b44b60bf1f,1.0,True,14.0,26o7jq95u69cmyl7q3tt,"9/26/2022, 3:01:31 PM",Chrome,main_task_5,chris,prolific_afc6,,,,,,,planes,_01_Airliner_2jetEngines,planes,_01_Airliner_2jetEngines,within,,planes,"[2869, 2858]",mig29,V3,,,,,,,,,,,,,,,,,,,,,,,,,,,,,,,,,,,,,,,,,,,,
2302,6331f70f9cb434415f3c1c53,1714,False,"['../stimuli/objectome/2082.jpeg', '../stimuli/objectome/960.jpeg', '../stimuli/objectome/2114.jpeg']",arrowright,2.0,960.0,,,,,,,,,,,,,,filler,54,244191,0.0-49.0-0.0,60fcec383dab931ff7a69163,6331f1b0a8414c625326e97a,6331f61090d5c50c1aea9f29,2.0,True,1.0,hnofuajabkh3hjqrm8gb,"9/26/2022, 2:01:35 PM",Chrome,main_task_5,chris,prolific_afc6,,,,,,,animals,LIONESS,animals,LIONESS,within,,animals,"[2082, 2114]",bear,V3,,,,,,,,,,,,,,,,,,,,,,,,,,,,,,,,,,,,,,,,,,,,
2303,6331f70f9cb434415f3c1c54,4369,False,"['../stimuli/version1_gray_lm/id115_25L_U.png', '../stimuli/version1_gray_lm/id094_25R_D.png', '../stimuli/version1_gray_lm/id115_00C_C.png']",arrowleft,2.0,1.0,094,25R,D,white,man,"[0, 2]",115,"['25L', '00C']","['U', 'C']",white,man,0.8187196254730225,"[0.8482253551483154, 0.8907085061073303]",encoding,28,160756,0.0-25.0,61002947d99d3eb1380553ca,6331f1b0a8414c625326e97a,6331f653ef9391b6772dad19,1.0,False,10.0,vdt8vfwl626ubga1m7oa,"9/26/2022, 3:01:31 PM",Chrome,main_task_5,chris,prolific_afc6,,"{'muct_id': '264', 'lighting': 't', 'race_guess': 'w', 'gender_guess': 'm', 'quality': '3', 'quality_eyes': '3', 'quality_mouth': '3', 'quality_ears': '3', 'quality_hair': '3', 'quality_neck': '3', 'facial_hair': '0.0', 'notes': None, 'race_common': 'white', 'gender_common': 'man'}","{'muct_id': '412', 'lighting': 'x', 'race_guess': 'w', 'gender_guess': 'm', 'quality': '3', 'quality_eyes': '3', 'quality_mouth': '3', 'quality_ears': '3', 'quality_hair': '3', 'quality_neck': '3', 'facial_hair': '0.0', 'notes': None, 'race_common': 'white', 'gender_common': 'man'}",,,,,,,,,,,,,,,,,,,,,,,,,,,,,,,,,,,,,,,,,,,,,,,,,,,,,,,,,
2304,6331f7109cb434415f3c1c55,4465,False,"['../stimuli/objectome/2795.jpeg', '../stimuli/objectome/2263.jpeg', '../stimuli/objectome/2776.jpeg']",arrowright,2.0,2263.0,,,,,,,,,,,,,,filler,81,271674,0.0-75.0,612cf985fdf515920654eeff,6331f1b0a8414c625326e97a,6331f5f2ee3aa1b44b60bf1f,2.0,True,15.0,26o7jq95u69cmyl7q3tt,"9/26/2022, 3:01:36 PM",Chrome,main_task_5,chris,prolific_afc6,,,,,,,animals,breed_pug,animals,breed_pug,within,,animals,"[2795, 2776]",hedgehog,V3,,,,,,,,,,,,,,,,,,,,,,,,,,,,,,,,,,,,,,,,,,,,
2305,6331f7129cb434415f3c1c56,2060,False,"['../stimuli/objectome/403.jpeg', '../stimuli/objectome/402.jpeg', '../stimuli/objectome/536.jpeg']",arrowdown,3.0,536.0,,,,,,,,,,,,,,filler,56,247578,0.0-50.0-0.0,60fcec383dab931ff7a69163,6331f1b0a8414c625326e97a,6331f61090d5c50c1aea9f29,3.0,True,2.0,hnofuajabkh3hjqrm8gb,"9/26/2022, 2:01:38 PM",Chrome,main_task_5,chris,prolific_afc6,,,,,,,animals,hedgehog,animals,hedgehog,within,,animals,"[403, 402]",breed_pug,V0,,,,,,,,,,,,,,,,,,,,,,,,,,,,,,,,,,,,,,,,,,,,
2306,6331f7129cb434415f3c1c57,2403,False,"['../stimuli/version1_gray_lm/id120_25R_D.png', '../stimuli/version1_gray_lm/id120_25L_C.png', '../stimuli/version1_gray_lm/id133_00C_U.png']",arrowdown,3.0,2.0,133,00C,U,black,woman,"[0, 1]",120,"['25R', '25L']","['D', 'C']",black,woman,0.8410040140151978,"[0.8439685702323914, 0.8112473487854004]",encoding,30,163729,0.0-27.0,61002947d99d3eb1380553ca,6331f1b0a8414c625326e97a,6331f653ef9391b6772dad19,3.0,True,11.0,vdt8vfwl626ubga1m7oa,"9/26/2022, 3:01:34 PM",Chrome,main_task_5,chris,prolific_afc6,,"{'muct_id': '601', 'lighting': 'y', 'race_guess': 'b', 'gender_guess': 'w', 'quality': '3', 'quality_eyes': '3', 'quality_mouth': '3', 'quality_ears': '3', 'quality_hair': '3', 'quality_neck': '3', 'facial_hair': '0.0', 'notes': 'mouth', 'race_common': 'black', 'gender_common': 'woman'}","{'muct_id': '421', 'lighting': 'x', 'race_guess': 'b', 'gender_guess': 'w', 'quality': '3', 'quality_eyes': '3', 'quality_mouth': '3', 'quality_ears': '3', 'quality_hair': '3', 'quality_neck': '3', 'facial_hair': '0.0', 'notes': None, 'race_common': 'black', 'gender_common': 'woman'}",,,,,,,,,,,,,,,,,,,,,,,,,,,,,,,,,,,,,,,,,,,,,,,,,,,,,,,,,
2307,6331f7149cb434415f3c1c58,2728,False,"['../stimuli/objectome/1209.jpeg', '../stimuli/objectome/966.jpeg', '../stimuli/objectome/991.jpeg']",arrowleft,1.0,1209.0,,,,,,,,,,,,,,filler,83,275069,0.0-77.0,612cf985fdf515920654eeff,6331f1b0a8414c625326e97a,6331f5f2ee3aa1b44b60bf1f,1.0,True,16.0,26o7jq95u69cmyl7q3tt,"9/26/2022, 3:01:39 PM",Chrome,main_task_5,chris,prolific_afc6,,,,,,,animals,TURTLE_L,animals,TURTLE_L,within,,animals,"[966, 991]",LIONESS,V3,,,,,,,,,,,,,,,,,,,,,,,,,,,,,,,,,,,,,,,,,,,,
2308,6331f7159cb434415f3c1c59,1903,False,"['../stimuli/version1_gray_lm/id150_25R_C.png', '../stimuli/version1_gray_lm/id018_00C_D.png', '../stimuli/version1_gray_lm/id150_25L_U.png']",arrowright,2.0,1.0,018,00C,D,white,woman,"[0, 2]",150,"['25R', '25L']","['C', 'U']",white,woman,0.8462492227554321,"[0.8464280962944031, 0.8257170915603638]",encoding,32,166333,0.0-29.0,61002947d99d3eb1380553ca,6331f1b0a8414c625326e97a,6331f653ef9391b6772dad19,2.0,True,12.0,vdt8vfwl626ubga1m7oa,"9/26/2022, 3:01:37 PM",Chrome,main_task_5,chris,prolific_afc6,,"{'muct_id': '21', 'lighting': 'q', 'race_guess': 'w', 'gender_guess': 'w', 'quality': '3', 'quality_eyes': '3', 'quality_mouth': '3', 'quality_ears': '3', 'quality_hair': '3', 'quality_neck': '3', 'facial_hair': '0.0', 'notes': None, 'race_common': 'white', 'gender_common': 'woman'}","{'muct_id': '422', 'lighting': 'w', 'race_guess': 'u', 'gender_guess': 'w', 'quality': '3', 'quality_eyes': '3', 'quality_mouth': '3', 'quality_ears': '3', 'quality_hair': '3', 'quality_neck': '3', 'facial_hair': '0.0', 'notes': 'mouth', 'race_common': 'white', 'gender_common': 'woman'}",,,,,,,,,,,,,,,,,,,,,,,,,,,,,,,,,,,,,,,,,,,,,,,,,,,,,,,,,
2309,6331f7159cb434415f3c1c5a,2614,False,"['../stimuli/objectome/1381.jpeg', '../stimuli/objectome/1575.jpeg', '../stimuli/objectome/1387.jpeg']",arrowright,2.0,1575.0,,,,,,,,,,,,,,filler,58,250894,0.0-51.0-0.0,60fcec383dab931ff7a69163,6331f1b0a8414c625326e97a,6331f61090d5c50c1aea9f29,2.0,True,3.0,hnofuajabkh3hjqrm8gb,"9/26/2022, 2:01:41 PM",Chrome,main_task_5,chris,prolific_afc6,,,,,,,chairs,_033,chairs,_033,within,,chairs,"[1381, 1387]",_010,V3,,,,,,,,,,,,,,,,,,,,,,,,,,,,,,,,,,,,,,,,,,,,
2310,6331f7169cb434415f3c1c5b,1778,False,"['../stimuli/objectome/535.jpeg', '../stimuli/objectome/365.jpeg', '../stimuli/objectome/361.jpeg']",arrowleft,1.0,535.0,,,,,,,,,,,,,,filler,85,277488,0.0-79.0,612cf985fdf515920654eeff,6331f1b0a8414c625326e97a,6331f5f2ee3aa1b44b60bf1f,1.0,True,17.0,26o7jq95u69cmyl7q3tt,"9/26/2022, 3:01:42 PM",Chrome,main_task_5,chris,prolific_afc6,,,,,,,animals,hedgehog,animals,hedgehog,within,,animals,"[365, 361]",bear,V0,,,,,,,,,,,,,,,,,,,,,,,,,,,,,,,,,,,,,,,,,,,,
2311,6331f7189cb434415f3c1c5c,3091,False,"['../stimuli/version1_gray_lm/id047_25R_C.png', '../stimuli/version1_gray_lm/id032_25L_U.png', '../stimuli/version1_gray_lm/id047_00C_D.png']",arrowright,2.0,1.0,032,25L,U,white,man,"[0, 2]",047,"['25R', '00C']","['C', 'D']",white,man,0.7874716520309448,"[0.8213459849357605, 0.8497259020805359]",encoding,34,169961,0.0-31.0,61002947d99d3eb1380553ca,6331f1b0a8414c625326e97a,6331f653ef9391b6772dad19,2.0,True,13.0,vdt8vfwl626ubga1m7oa,"9/26/2022, 3:01:40 PM",Chrome,main_task_5,chris,prolific_afc6,,"{'muct_id': '43', 'lighting': 'q', 'race_guess': 'w', 'gender_guess': 'm', 'quality': '3', 'quality_eyes': '3', 'quality_mouth': '3', 'quality_ears': '3', 'quality_hair': '3', 'quality_neck': '3', 'facial_hair': '0.0', 'notes': None, 'race_common': 'white', 'gender_common': 'man'}","{'muct_id': '64', 'lighting': 'q', 'race_guess': 'w', 'gender_guess': 'm', 'quality': '3', 'quality_eyes': '3', 'quality_mouth': '3', 'quality_ears': '3', 'quality_hair': '3', 'quality_neck': '3', 'facial_hair': '0.0', 'notes': None, 'race_common': 'white', 'gender_common': 'man'}",,,,,,,,,,,,,,,,,,,,,,,,,,,,,,,,,,,,,,,,,,,,,,,,,,,,,,,,,
2312,6331f71b9cb434415f3c1c5d,1607,False,"['../stimuli/objectome/2775.jpeg', '../stimuli/objectome/995.jpeg', '../stimuli/objectome/987.jpeg']",arrowleft,1.0,2775.0,,,,,,,,,,,,,,filler,61,255903,0.0-53.0,60fcec383dab931ff7a69163,6331f1b0a8414c625326e97a,6331f61090d5c50c1aea9f29,1.0,True,4.0,hnofuajabkh3hjqrm8gb,"9/26/2022, 2:01:46 PM",Chrome,main_task_5,chris,prolific_afc6,,,,,,,animals,hedgehog,animals,hedgehog,within,,animals,"[995, 987]",LIONESS,V3,,,,,,,,,,,,,,,,,,,,,,,,,,,,,,,,,,,,,,,,,,,,
2313,6331f71d9cb434415f3c1c5e,6230,False,"['../stimuli/objectome/1853.jpeg', '../stimuli/objectome/2861.jpeg', '../stimuli/objectome/1858.jpeg']",arrowdown,2.0,2861.0,,,,,,,,,,,,,,filler,87,284253,0.0-81.0,612cf985fdf515920654eeff,6331f1b0a8414c625326e97a,6331f5f2ee3aa1b44b60bf1f,3.0,False,18.0,26o7jq95u69cmyl7q3tt,"9/26/2022, 3:01:48 PM",Chrome,main_task_5,chris,prolific_afc6,,,,,,,planes,_19_flyingBoat,planes,mig29,within,,planes,"[1853, 1858]",_19_flyingBoat,V3,,,,,,,,,,,,,,,,,,,,,,,,,,,,,,,,,,,,,,,,,,,,
2314,6331f71d9cb434415f3c1c5f,3541,False,"['../stimuli/version1_gray_lm/id060_25L_C.png', '../stimuli/version1_gray_lm/id111_25R_U.png', '../stimuli/version1_gray_lm/id111_00C_D.png']",arrowdown,1.0,0.0,060,25L,C,black,woman,"[1, 2]",111,"['25R', '00C']","['U', 'D']",black,woman,0.8625316619873047,"[0.8264833688735962, 0.87931889295578]",encoding,36,174219,0.0-33.0,61002947d99d3eb1380553ca,6331f1b0a8414c625326e97a,6331f653ef9391b6772dad19,3.0,False,14.0,vdt8vfwl626ubga1m7oa,"9/26/2022, 3:01:44 PM",Chrome,main_task_5,chris,prolific_afc6,,"{'muct_id': '88', 'lighting': 'q', 'race_guess': 'b', 'gender_guess': 'w', 'quality': '3', 'quality_eyes': '3', 'quality_mouth': '3', 'quality_ears': '3', 'quality_hair': '3', 'quality_neck': '3', 'facial_hair': '0.0', 'notes': 'earrings', 'race_common': 'black', 'gender_common': 'woman'}","{'muct_id': '405', 'lighting': 'w', 'race_guess': 'b', 'gender_guess': 'w', 'quality': '3', 'quality_eyes': '3', 'quality_mouth': '3', 'quality_ears': '3', 'quality_hair': '3', 'quality_neck': '3', 'facial_hair': '0.0', 'notes': 'hair earrings', 'race_common': 'black', 'gender_common': 'woman'}",,,,,,,,,,,,,,,,,,,,,,,,,,,,,,,,,,,,,,,,,,,,,,,,,,,,,,,,,
2315,6331f71f9cb434415f3c1c60,1266,False,"['../stimuli/version1_gray_lm/id059_25R_C.png', '../stimuli/version1_gray_lm/id069_25L_U.png', '../stimuli/version1_gray_lm/id059_00C_D.png']",arrowright,2.0,1.0,069,25L,U,black,woman,"[0, 2]",059,"['25R', '00C']","['C', 'D']",black,woman,0.8012693524360657,"[0.809404730796814, 0.8275641202926636]",encoding,38,176095,0.0-35.0,61002947d99d3eb1380553ca,6331f1b0a8414c625326e97a,6331f653ef9391b6772dad19,2.0,True,15.0,vdt8vfwl626ubga1m7oa,"9/26/2022, 3:01:46 PM",Chrome,main_task_5,chris,prolific_afc6,,"{'muct_id': '218', 'lighting': 't', 'race_guess': 'b', 'gender_guess': 'w', 'quality': '3', 'quality_eyes': '3', 'quality_mouth': '3', 'quality_ears': '3', 'quality_hair': '3', 'quality_neck': '3', 'facial_hair': '0.0', 'notes': None, 'race_common': 'black', 'gender_common': 'woman'}","{'muct_id': '86', 'lighting': 'q', 'race_guess': 'b', 'gender_guess': 'w', 'quality': '3', 'quality_eyes': '3', 'quality_mouth': '3', 'quality_ears': '3', 'quality_hair': '3', 'quality_neck': '3', 'facial_hair': '0.0', 'notes': 'earrings', 'race_common': 'black', 'gender_common': 'woman'}",,,,,,,,,,,,,,,,,,,,,,,,,,,,,,,,,,,,,,,,,,,,,,,,,,,,,,,,,
2316,6331f71f9cb434415f3c1c61,3856,False,"['../stimuli/objectome/3003.jpeg', '../stimuli/objectome/2807.jpeg', '../stimuli/objectome/3022.jpeg']",arrowleft,2.0,2807.0,,,,,,,,,,,,,,filler,63,260636,0.0-55.0,60fcec383dab931ff7a69163,6331f1b0a8414c625326e97a,6331f61090d5c50c1aea9f29,1.0,False,5.0,hnofuajabkh3hjqrm8gb,"9/26/2022, 2:01:51 PM",Chrome,main_task_5,chris,prolific_afc6,,,,,,,planes,sopwith,planes,junkers88,within,,planes,"[3003, 3022]",sopwith,V3,,,,,,,,,,,,,,,,,,,,,,,,,,,,,,,,,,,,,,,,,,,,
2317,6331f7209cb434415f3c1c62,2267,False,"['../stimuli/objectome/1608.jpeg', '../stimuli/objectome/1614.jpeg', '../stimuli/objectome/2819.jpeg']",arrowdown,3.0,2819.0,,,,,,,,,,,,,,filler,89,287212,0.0-83.0,612cf985fdf515920654eeff,6331f1b0a8414c625326e97a,6331f5f2ee3aa1b44b60bf1f,3.0,True,19.0,26o7jq95u69cmyl7q3tt,"9/26/2022, 3:01:51 PM",Chrome,main_task_5,chris,prolific_afc6,,,,,,,planes,junkers88,planes,junkers88,within,,planes,"[1608, 1614]",_05_future,V3,,,,,,,,,,,,,,,,,,,,,,,,,,,,,,,,,,,,,,,,,,,,
2318,6331f7219cb434415f3c1c63,1367,False,"['../stimuli/objectome/2117.jpeg', '../stimuli/objectome/2257.jpeg', '../stimuli/objectome/2107.jpeg']",arrowright,2.0,2257.0,,,,,,,,,,,,,,filler,65,262826,0.0-57.0,60fcec383dab931ff7a69163,6331f1b0a8414c625326e97a,6331f61090d5c50c1aea9f29,2.0,True,6.0,hnofuajabkh3hjqrm8gb,"9/26/2022, 2:01:53 PM",Chrome,main_task_5,chris,prolific_afc6,,,,,,,animals,breed_pug,animals,breed_pug,within,,animals,"[2117, 2107]",bear,V3,,,,,,,,,,,,,,,,,,,,,,,,,,,,,,,,,,,,,,,,,,,,
2319,6331f7229cb434415f3c1c64,2185,False,"['../stimuli/version1_gray_lm/id002_00C_C.png', '../stimuli/version1_gray_lm/id093_25R_D.png', '../stimuli/version1_gray_lm/id002_25L_U.png']",arrowleft,2.0,1.0,093,25R,D,white,man,"[0, 2]",002,"['00C', '25L']","['C', 'U']",white,man,0.8248165845870972,"[0.8065407872200012, 0.7940728068351746]",encoding,40,179136,0.0-37.0,61002947d99d3eb1380553ca,6331f1b0a8414c625326e97a,6331f653ef9391b6772dad19,1.0,False,16.0,vdt8vfwl626ubga1m7oa,"9/26/2022, 3:01:49 PM",Chrome,main_task_5,chris,prolific_afc6,,"{'muct_id': '263', 'lighting': 'u', 'race_guess': 'w', 'gender_guess': 'm', 'quality': '3', 'quality_eyes': '3', 'quality_mouth': '3', 'quality_ears': '3', 'quality_hair': '3', 'quality_neck': '3', 'facial_hair': '2.0', 'notes': None, 'race_common': 'white', 'gender_common': 'man'}","{'muct_id': '2', 'lighting': 'r', 'race_guess': 'w', 'gender_guess': 'm', 'quality': '3', 'quality_eyes': '3', 'quality_mouth': '3', 'quality_ears': '3', 'quality_hair': '3', 'quality_neck': '3', 'facial_hair': '2.0', 'notes': 'eyes', 'race_common': 'white', 'gender_common': 'man'}",,,,,,,,,,,,,,,,,,,,,,,,,,,,,,,,,,,,,,,,,,,,,,,,,,,,,,,,,
2320,6331f7249cb434415f3c1c65,3085,False,"['../stimuli/objectome/2110.jpeg', '../stimuli/objectome/2100.jpeg', '../stimuli/objectome/951.jpeg']",arrowdown,3.0,951.0,,,,,,,,,,,,,,filler,91,290838,0.0-85.0,612cf985fdf515920654eeff,6331f1b0a8414c625326e97a,6331f5f2ee3aa1b44b60bf1f,3.0,True,20.0,26o7jq95u69cmyl7q3tt,"9/26/2022, 3:01:55 PM",Chrome,main_task_5,chris,prolific_afc6,,,,,,,animals,GORILLA,animals,GORILLA,within,,animals,"[2110, 2100]",bear,V3,,,,,,,,,,,,,,,,,,,,,,,,,,,,,,,,,,,,,,,,,,,,
2321,6331f7259cb434415f3c1c66,2374,False,"['../stimuli/version1_gray_lm/id019_25L_D.png', '../stimuli/version1_gray_lm/id126_00C_C.png', '../stimuli/version1_gray_lm/id126_25R_U.png']",arrowleft,1.0,0.0,019,25L,D,black,woman,"[1, 2]",126,"['00C', '25R']","['C', 'U']",black,woman,0.8795315027236938,"[0.7969012260437012, 0.7921608686447144]",encoding,42,182012,0.0-39.0,61002947d99d3eb1380553ca,6331f1b0a8414c625326e97a,6331f653ef9391b6772dad19,1.0,True,17.0,vdt8vfwl626ubga1m7oa,"9/26/2022, 3:01:52 PM",Chrome,main_task_5,chris,prolific_afc6,,"{'muct_id': '23', 'lighting': 'q', 'race_guess': 'b', 'gender_guess': 'u', 'quality': '3', 'quality_eyes': '3', 'quality_mouth': '3', 'quality_ears': '3', 'quality_hair': '3', 'quality_neck': '3', 'facial_hair': '0.0', 'notes': None, 'race_common': 'black', 'gender_common': 'woman'}","{'muct_id': '434', 'lighting': 'w', 'race_guess': 'b', 'gender_guess': 'w', 'quality': '3', 'quality_eyes': '3', 'quality_mouth': '3', 'quality_ears': '3', 'quality_hair': '3', 'quality_neck': '3', 'facial_hair': '0.0', 'notes': 'earrings', 'race_common': 'black', 'gender_common': 'woman'}",,,,,,,,,,,,,,,,,,,,,,,,,,,,,,,,,,,,,,,,,,,,,,,,,,,,,,,,,
2322,6331f7259cb434415f3c1c67,3260,False,"['../stimuli/objectome/2980.jpeg', '../stimuli/objectome/2979.jpeg', '../stimuli/objectome/3024.jpeg']",arrowdown,3.0,3024.0,,,,,,,,,,,,,,filler,67,266664,0.0-59.0,60fcec383dab931ff7a69163,6331f1b0a8414c625326e97a,6331f61090d5c50c1aea9f29,3.0,True,7.0,hnofuajabkh3hjqrm8gb,"9/26/2022, 2:01:57 PM",Chrome,main_task_5,chris,prolific_afc6,,,,,,,planes,sopwith,planes,sopwith,within,,planes,"[2980, 2979]",rdbarren,V3,,,,,,,,,,,,,,,,,,,,,,,,,,,,,,,,,,,,,,,,,,,,
2323,6331f7279cb434415f3c1c68,2652,,"<p style='font-size: 150%'><b>You have finished Part 2!</b></p><p>Nice job! On this section, you averaged <b>95% accuracy</b>.</p><p>You're on track to earn a good bonus. Keep up the good work!</p><p>Click 'Next' to continue to Part 3.</p>",,,,,,,,,,,,,,,,,bonus_update,93,294127,0.0-87.0,612cf985fdf515920654eeff,6331f1b0a8414c625326e97a,6331f5f2ee3aa1b44b60bf1f,,,,26o7jq95u69cmyl7q3tt,"9/26/2022, 3:01:58 PM",Chrome,main_task_5,chris,prolific_afc6,,,,,filler,1.725,,,,,,,,,,,,,,,,,,,,,,,,,,,,,,,,0,,,,,,,,,,,,,,,,,,,,,,
2324,6331f7289cb434415f3c1c69,1601,False,"['../stimuli/objectome/1381.jpeg', '../stimuli/objectome/1285.jpeg', '../stimuli/objectome/1390.jpeg']",arrowright,2.0,1285.0,,,,,,,,,,,,,,filler,69,268958,0.0-61.0,60fcec383dab931ff7a69163,6331f1b0a8414c625326e97a,6331f61090d5c50c1aea9f29,2.0,True,8.0,hnofuajabkh3hjqrm8gb,"9/26/2022, 2:01:59 PM",Chrome,main_task_5,chris,prolific_afc6,,,,,,,chairs,_004,chairs,_004,within,,chairs,"[1381, 1390]",_010,V3,,,,,,,,,,,,,,,,,,,,,,,,,,,,,,,,,,,,,,,,,,,,
2325,6331f7289cb434415f3c1c6a,2529,False,"['../stimuli/version1_gray_lm/id073_25R_D.png', '../stimuli/version1_gray_lm/id073_25L_U.png', '../stimuli/version1_gray_lm/id149_00C_C.png']",arrowdown,3.0,2.0,149,00C,C,white,man,"[0, 1]",073,"['25R', '25L']","['D', 'U']",white,man,0.7883397340774536,"[0.8529525995254517, 0.8597018718719482]",encoding,44,185335,0.0-41.0,61002947d99d3eb1380553ca,6331f1b0a8414c625326e97a,6331f653ef9391b6772dad19,3.0,True,18.0,vdt8vfwl626ubga1m7oa,"9/26/2022, 3:01:56 PM",Chrome,main_task_5,chris,prolific_afc6,,"{'muct_id': '416', 'lighting': 'w', 'race_guess': 'w', 'gender_guess': 'm', 'quality': '3', 'quality_eyes': '3', 'quality_mouth': '3', 'quality_ears': '3', 'quality_hair': '3', 'quality_neck': '3', 'facial_hair': '2.0', 'notes': None, 'race_common': 'white', 'gender_common': 'man'}","{'muct_id': '225', 'lighting': 'u', 'race_guess': 'w', 'gender_guess': 'm', 'quality': '3', 'quality_eyes': '3', 'quality_mouth': '3', 'quality_ears': '3', 'quality_hair': '3', 'quality_neck': '3', 'facial_hair': '2.0', 'notes': None, 'race_common': 'white', 'gender_common': 'man'}",,,,,,,,,,,,,,,,,,,,,,,,,,,,,,,,,,,,,,,,,,,,,,,,,,,,,,,,,
2326,6331f72c9cb434415f3c1c6b,3907,False,"['../stimuli/version1_gray_lm/id090_25R_U.png', '../stimuli/version1_gray_lm/id091_25L_C.png', '../stimuli/version1_gray_lm/id090_00C_D.png']",arrowleft,2.0,1.0,091,25L,C,black,man,"[0, 2]",090,"['25R', '00C']","['U', 'D']",black,man,0.8398050665855408,"[0.7921282649040222, 0.8795903921127319]",encoding,46,189881,0.0-43.0,61002947d99d3eb1380553ca,6331f1b0a8414c625326e97a,6331f653ef9391b6772dad19,1.0,False,19.0,vdt8vfwl626ubga1m7oa,"9/26/2022, 3:02:00 PM",Chrome,main_task_5,chris,prolific_afc6,,"{'muct_id': '260', 'lighting': 't', 'race_guess': 'b', 'gender_guess': 'm', 'quality': '3', 'quality_eyes': '3', 'quality_mouth': '3', 'quality_ears': '3', 'quality_hair': '3', 'quality_neck': '3', 'facial_hair': '4.0', 'notes': 'beard', 'race_common': 'black', 'gender_common': 'man'}","{'muct_id': '259', 'lighting': 'v', 'race_guess': 'b', 'gender_guess': 'm', 'quality': '3', 'quality_eyes': '3', 'quality_mouth': '3', 'quality_ears': '3', 'quality_hair': '3', 'quality_neck': '3', 'facial_hair': '2.0', 'notes': None, 'race_common': 'black', 'gender_common': 'man'}",,,,,,,,,,,,,,,,,,,,,,,,,,,,,,,,,,,,,,,,,,,,,,,,,,,,,,,,,
2327,6331f72d9cb434415f3c1c6c,4878,False,"['../stimuli/objectome/1511.jpeg', '../stimuli/objectome/1628.jpeg', '../stimuli/objectome/1619.jpeg']",arrowleft,1.0,1511.0,,,,,,,,,,,,,,filler,71,274485,0.0-63.0,60fcec383dab931ff7a69163,6331f1b0a8414c625326e97a,6331f61090d5c50c1aea9f29,1.0,True,9.0,hnofuajabkh3hjqrm8gb,"9/26/2022, 2:02:05 PM",Chrome,main_task_5,chris,prolific_afc6,,,,,,,planes,_01_Airliner_2jetEngines,planes,_01_Airliner_2jetEngines,within,,planes,"[1628, 1619]",_05_future,V3,,,,,,,,,,,,,,,,,,,,,,,,,,,,,,,,,,,,,,,,,,,,
2328,6331f7309cb434415f3c1c6d,2240,False,"['../stimuli/objectome/2150.jpeg', '../stimuli/objectome/2141.jpeg', '../stimuli/objectome/2785.jpeg']",arrowdown,3.0,2785.0,,,,,,,,,,,,,,filler,73,277367,0.0-65.0,60fcec383dab931ff7a69163,6331f1b0a8414c625326e97a,6331f61090d5c50c1aea9f29,3.0,True,10.0,hnofuajabkh3hjqrm8gb,"9/26/2022, 2:02:08 PM",Chrome,main_task_5,chris,prolific_afc6,,,,,,,animals,hedgehog,animals,hedgehog,within,,animals,"[2150, 2141]",blCow,V3,,,,,,,,,,,,,,,,,,,,,,,,,,,,,,,,,,,,,,,,,,,,
2329,6331f7329cb434415f3c1c6e,3635,False,"['../stimuli/version1_gray_lm/id156_00C_U.png', '../stimuli/version1_gray_lm/id053_25L_C.png', '../stimuli/version1_gray_lm/id156_25R_D.png']",arrowright,2.0,1.0,053,25L,C,white,man,"[0, 2]",156,"['00C', '25R']","['U', 'D']",white,man,0.879274845123291,"[0.8364711403846741, 0.8221330046653748]",encoding,48,195193,0.0-45.0,61002947d99d3eb1380553ca,6331f1b0a8414c625326e97a,6331f653ef9391b6772dad19,2.0,True,20.0,vdt8vfwl626ubga1m7oa,"9/26/2022, 3:02:05 PM",Chrome,main_task_5,chris,prolific_afc6,,"{'muct_id': '79', 'lighting': 'r', 'race_guess': 'i', 'gender_guess': 'm', 'quality': '2', 'quality_eyes': '2', 'quality_mouth': '3', 'quality_ears': '3', 'quality_hair': '2', 'quality_neck': '3', 'facial_hair': '0.0', 'notes': None, 'race_common': 'white', 'gender_common': 'man'}","{'muct_id': '258', 'lighting': 'u', 'race_guess': 'w', 'gender_guess': 'm', 'quality': '2', 'quality_eyes': '3', 'quality_mouth': '3', 'quality_ears': '3', 'quality_hair': '2', 'quality_neck': '3', 'facial_hair': '0.0', 'notes': 'hair', 'race_common': 'white', 'gender_common': 'man'}",,,,,,,,,,,,,,,,,,,,,,,,,,,,,,,,,,,,,,,,,,,,,,,,,,,,,,,,,
2330,6331f7339cb434415f3c1c6f,2722,False,"['../stimuli/objectome/3011.jpeg', '../stimuli/objectome/1612.jpeg', '../stimuli/objectome/1601.jpeg']",arrowleft,1.0,3011.0,,,,,,,,,,,,,,filler,75,280711,0.0-67.0,60fcec383dab931ff7a69163,6331f1b0a8414c625326e97a,6331f61090d5c50c1aea9f29,1.0,True,11.0,hnofuajabkh3hjqrm8gb,"9/26/2022, 2:02:11 PM",Chrome,main_task_5,chris,prolific_afc6,,,,,,,planes,sopwith,planes,sopwith,within,,planes,"[1612, 1601]",_05_future,V3,,,,,,,,,,,,,,,,,,,,,,,,,,,,,,,,,,,,,,,,,,,,
2331,6331f7369cb434415f3c1c70,1868,False,"['../stimuli/objectome/1422.jpeg', '../stimuli/objectome/1437.jpeg', '../stimuli/objectome/1522.jpeg']",arrowdown,3.0,1522.0,,,,,,,,,,,,,,filler,77,283295,0.0-69.0,60fcec383dab931ff7a69163,6331f1b0a8414c625326e97a,6331f61090d5c50c1aea9f29,3.0,True,12.0,hnofuajabkh3hjqrm8gb,"9/26/2022, 2:02:14 PM",Chrome,main_task_5,chris,prolific_afc6,,,,,,,chairs,_031,chairs,_031,within,,chairs,"[1422, 1437]",_011,V3,,,,,,,,,,,,,,,,,,,,,,,,,,,,,,,,,,,,,,,,,,,,
2332,6331f7389cb434415f3c1c71,1617,False,"['../stimuli/objectome/2082.jpeg', '../stimuli/objectome/2083.jpeg', '../stimuli/objectome/2770.jpeg']",arrowdown,3.0,2770.0,,,,,,,,,,,,,,filler,79,285530,0.0-71.0,60fcec383dab931ff7a69163,6331f1b0a8414c625326e97a,6331f61090d5c50c1aea9f29,3.0,True,13.0,hnofuajabkh3hjqrm8gb,"9/26/2022, 2:02:16 PM",Chrome,main_task_5,chris,prolific_afc6,,,,,,,animals,hedgehog,animals,hedgehog,within,,animals,"[2082, 2083]",bear,V3,,,,,,,,,,,,,,,,,,,,,,,,,,,,,,,,,,,,,,,,,,,,
2333,6331f73b9cb434415f3c1c72,1778,False,"['../stimuli/objectome/2118.jpeg', '../stimuli/objectome/1216.jpeg', '../stimuli/objectome/1207.jpeg']",arrowleft,1.0,2118.0,,,,,,,,,,,,,,filler,81,287969,0.0-73.0,60fcec383dab931ff7a69163,6331f1b0a8414c625326e97a,6331f61090d5c50c1aea9f29,1.0,True,14.0,hnofuajabkh3hjqrm8gb,"9/26/2022, 2:02:18 PM",Chrome,main_task_5,chris,prolific_afc6,,,,,,,animals,bear,animals,bear,within,,animals,"[1216, 1207]",TURTLE_L,V3,,,,,,,,,,,,,,,,,,,,,,,,,,,,,,,,,,,,,,,,,,,,
2334,6331f73f9cb434415f3c1c73,3805,False,"['../stimuli/objectome/1600.jpeg', '../stimuli/objectome/2871.jpeg', '../stimuli/objectome/1616.jpeg']",arrowright,2.0,2871.0,,,,,,,,,,,,,,filler,83,292349,0.0-75.0,60fcec383dab931ff7a69163,6331f1b0a8414c625326e97a,6331f61090d5c50c1aea9f29,2.0,True,15.0,hnofuajabkh3hjqrm8gb,"9/26/2022, 2:02:23 PM",Chrome,main_task_5,chris,prolific_afc6,,,,,,,planes,mig29,planes,mig29,within,,planes,"[1600, 1616]",_05_future,V3,,,,,,,,,,,,,,,,,,,,,,,,,,,,,,,,,,,,,,,,,,,,
2335,6331f7419cb434415f3c1c74,1788,False,"['../stimuli/objectome/1281.jpeg', '../stimuli/objectome/1403.jpeg', '../stimuli/objectome/1418.jpeg']",arrowleft,1.0,1281.0,,,,,,,,,,,,,,filler,85,294765,0.0-77.0,60fcec383dab931ff7a69163,6331f1b0a8414c625326e97a,6331f61090d5c50c1aea9f29,1.0,True,16.0,hnofuajabkh3hjqrm8gb,"9/26/2022, 2:02:25 PM",Chrome,main_task_5,chris,prolific_afc6,,,,,,,chairs,_004,chairs,_004,within,,chairs,"[1403, 1418]",_011,V3,,,,,,,,,,,,,,,,,,,,,,,,,,,,,,,,,,,,,,,,,,,,
2336,6331f7439cb434415f3c1c75,1279,False,"['../stimuli/objectome/171.jpeg', '../stimuli/objectome/226.jpeg', '../stimuli/objectome/172.jpeg']",arrowright,2.0,226.0,,,,,,,,,,,,,,filler,87,296779,0.0-79.0,60fcec383dab931ff7a69163,6331f1b0a8414c625326e97a,6331f61090d5c50c1aea9f29,2.0,True,17.0,hnofuajabkh3hjqrm8gb,"9/26/2022, 2:02:27 PM",Chrome,main_task_5,chris,prolific_afc6,,,,,,,chairs,_031,chairs,_031,within,,chairs,"[171, 172]",_008,V0,,,,,,,,,,,,,,,,,,,,,,,,,,,,,,,,,,,,,,,,,,,,
2337,6331f7479cb434415f3c1c76,20408,,"<p style='font-size: 150%'><b>You have finished Part 1!</b></p><p>On this section, you averaged <b>70% accuracy</b>.</p><p>At this rate, you won't earn any bonus above the base rate.<br>Take your time on the next parts to make sure you can make a bonus!</p><p>Click 'Next' to continue to Part 2.</p>",,,,,,,,,,,,,,,,,bonus_update,50,216188,0.0-47.0,61002947d99d3eb1380553ca,6331f1b0a8414c625326e97a,6331f653ef9391b6772dad19,,,,vdt8vfwl626ubga1m7oa,"9/26/2022, 3:02:26 PM",Chrome,main_task_5,chris,prolific_afc6,,,,,encoding,0.0,,,,,,,,,,,,,,,,,,,,,,,,,,,,,,,,0,,,,,,,,,,,,,,,,,,,,,,
2338,6331f7479cb434415f3c1c77,3169,False,"['../stimuli/objectome/1407.jpeg', '../stimuli/objectome/1347.jpeg', '../stimuli/objectome/1420.jpeg']",arrowright,2.0,1347.0,,,,,,,,,,,,,,filler,89,300570,0.0-81.0,60fcec383dab931ff7a69163,6331f1b0a8414c625326e97a,6331f61090d5c50c1aea9f29,2.0,True,18.0,hnofuajabkh3hjqrm8gb,"9/26/2022, 2:02:31 PM",Chrome,main_task_5,chris,prolific_afc6,,,,,,,chairs,_008,chairs,_008,within,,chairs,"[1407, 1420]",_011,V3,,,,,,,,,,,,,,,,,,,,,,,,,,,,,,,,,,,,,,,,,,,,
2339,6331f74e9cb434415f3c1c78,6122,False,"['../stimuli/objectome/1873.jpeg', '../stimuli/objectome/2416.jpeg', '../stimuli/objectome/2401.jpeg']",arrowleft,1.0,1873.0,,,,,,,,,,,,,,filler,91,307334,0.0-83.0,60fcec383dab931ff7a69163,6331f1b0a8414c625326e97a,6331f61090d5c50c1aea9f29,1.0,True,19.0,hnofuajabkh3hjqrm8gb,"9/26/2022, 2:02:38 PM",Chrome,main_task_5,chris,prolific_afc6,,,,,,,planes,_19_flyingBoat,planes,_19_flyingBoat,within,,planes,"[2416, 2401]",f16,V3,,,,,,,,,,,,,,,,,,,,,,,,,,,,,,,,,,,,,,,,,,,,
