,_id,browser,choice,collection,correct,correct_response,database,datetime,experiment_id,internal_node_id,iteration,key_press,oddity_gender,oddity_identity,oddity_index,oddity_race,oddity_tiltLR,oddity_tiltUD,rt,stimulus,time_elapsed,timed_out,trial_index,trial_number,trial_type,typicals_gender,typicals_identity,typicals_indices,typicals_race,typicals_tiltsLR,typicals_tiltsUD,practice_threshold_met,oddity_meta,typicals_meta,button_pressed,last_trial_type,prediction,choice_category,choice_object,oddity_category,oddity_name,oddity_type,stimulus_response_map,typical_category,typical_indices,typical_name,variation_level,encoding_pair,encoding_type,gender,identity,meta,original_index,original_tiltLR,original_tiltUD,race,response,retrieval_condition,tiltLR,tiltUD,tilt_change,tilt_difference,original_tilt,encoding_accuracy,encoding_avg_rt,encoding_n_trials,experimental_duration,filler_accuracy,filler_avg_rt,filler_n_trials,params,retrieval_accuracy,retrieval_avg_rt,retrieval_n_trials,total_bonus,total_payment,age,gender_other,latinx,session_id,study_id,subject_id,meta_new,meta_old,new_gender,new_identity,new_index,new_race,new_tiltLR,new_tiltUD,old_encoding_pair,old_encoding_type,old_gender,old_identity,old_index,old_original_index,old_original_tiltLR,old_original_tiltUD,old_race,old_tiltLR,old_tiltUD,stimuli,oddity_mb,typicals_mb,new_mb,old_mb,old_tilt_change,old_tilt_difference
11089,626b34561a371c538416a80c,Chrome,3.0,main_task,1.0,3.0,chris,"4/28/2022, 8:41:58 PM",cqbz7lh19r6krarwzy7n,0.0-2.0-0.0,pilot_prolific_afc2,40,woman,110,2.0,latinx,50R,D,2982.0,"['../stimuli/version1_gray_lm/id106_25L_U.png', '../stimuli/version1_gray_lm/id106_00C_C.png', '../stimuli/version1_gray_lm/id110_50R_D.png']",124852.0,0.0,2.0,1.0,encoding_practice,woman,106,"[0, 1]",latinx,"['25L', '00C']","['U', 'C']",,,,,,,,,,,,,,,,,,,,,,,,,,,,,,,,,,,,,,,,,,,,,,,,,626b33cea0ce07a0486c19f1,626b317e2da99f76c814befb,590884b2ac756c0001ecb837,,,,,,,,,,,,,,,,,,,,,0.8334890604019165,"[0.7987434267997742, 0.8394277691841125]",,,,
11090,626b345b1a371c538416a80d,Chrome,1.0,main_task,1.0,1.0,chris,"4/28/2022, 8:42:03 PM",cqbz7lh19r6krarwzy7n,0.0-2.1-0.1,pilot_prolific_afc2,37,woman,108,0.0,latinx,50L,C,2232.0,"['../stimuli/version1_gray_lm/id108_50L_C.png', '../stimuli/version1_gray_lm/id106_50R_D.png', '../stimuli/version1_gray_lm/id106_00C_U.png']",130652.0,0.0,4.0,2.0,encoding_practice,woman,106,"[1, 2]",latinx,"['50R', '00C']","['D', 'U']",,,,,,,,,,,,,,,,,,,,,,,,,,,,,,,,,,,,,,,,,,,,,,,,,626b33cea0ce07a0486c19f1,626b317e2da99f76c814befb,590884b2ac756c0001ecb837,,,,,,,,,,,,,,,,,,,,,0.8190761804580688,"[0.8102920055389404, 0.8478227853775024]",,,,
11091,626b345f1a371c538416a80e,Chrome,3.0,main_task,0.0,1.0,chris,"4/28/2022, 8:42:07 PM",cqbz7lh19r6krarwzy7n,0.0-2.2-0.2,pilot_prolific_afc2,40,woman,106,0.0,latinx,25R,U,1860.0,"['../stimuli/version1_gray_lm/id106_25R_U.png', '../stimuli/version1_gray_lm/id110_50L_C.png', '../stimuli/version1_gray_lm/id110_00C_D.png']",134368.0,0.0,6.0,3.0,encoding_practice,woman,110,"[1, 2]",latinx,"['50L', '00C']","['C', 'D']",,,,,,,,,,,,,,,,,,,,,,,,,,,,,,,,,,,,,,,,,,,,,,,,,626b33cea0ce07a0486c19f1,626b317e2da99f76c814befb,590884b2ac756c0001ecb837,,,,,,,,,,,,,,,,,,,,,0.7741471529006958,"[0.8412233591079712, 0.840205192565918]",,,,
11092,626b34621a371c538416a80f,Chrome,1.0,main_task,0.0,2.0,chris,"4/28/2022, 8:42:10 PM",cqbz7lh19r6krarwzy7n,0.0-2.3-0.3,pilot_prolific_afc2,37,woman,110,1.0,latinx,50R,U,1305.0,"['../stimuli/version1_gray_lm/id108_50L_C.png', '../stimuli/version1_gray_lm/id110_50R_U.png', '../stimuli/version1_gray_lm/id108_00C_D.png']",137564.0,0.0,8.0,4.0,encoding_practice,woman,108,"[0, 2]",latinx,"['50L', '00C']","['C', 'D']",,,,,,,,,,,,,,,,,,,,,,,,,,,,,,,,,,,,,,,,,,,,,,,,,626b33cea0ce07a0486c19f1,626b317e2da99f76c814befb,590884b2ac756c0001ecb837,,,,,,,,,,,,,,,,,,,,,0.8715043663978577,"[0.8190761804580688, 0.851161539554596]",,,,
11093,626b34661a371c538416a810,Chrome,2.0,main_task,1.0,2.0,chris,"4/28/2022, 8:42:14 PM",cqbz7lh19r6krarwzy7n,0.0-2.4-0.4,pilot_prolific_afc2,39,woman,106,1.0,latinx,00C,D,2395.0,"['../stimuli/version1_gray_lm/id108_25L_U.png', '../stimuli/version1_gray_lm/id106_00C_D.png', '../stimuli/version1_gray_lm/id108_50R_C.png']",141199.0,0.0,10.0,5.0,encoding_practice,woman,108,"[0, 2]",latinx,"['25L', '50R']","['U', 'C']",1.0,,,,,,,,,,,,,,,,,,,,,,,,,,,,,,,,,,,,,,,,,,,,,,,,626b33cea0ce07a0486c19f1,626b317e2da99f76c814befb,590884b2ac756c0001ecb837,,,,,,,,,,,,,,,,,,,,,0.8164364099502563,"[0.829716682434082, 0.8142877221107483]",,,,
11094,626b34741a371c538416a811,Chrome,1.0,main_task,0.0,2.0,chris,"4/28/2022, 8:42:28 PM",cqbz7lh19r6krarwzy7n,0.0-4.0,pilot_prolific_afc2,37,woman,103,1.0,black,50R,C,1287.0,"['../stimuli/version1_gray_lm/id016_25L_U.png', '../stimuli/version1_gray_lm/id103_50R_C.png', '../stimuli/version1_gray_lm/id016_00C_D.png']",155281.0,0.0,13.0,1.0,encoding,woman,016,"[0, 2]",black,"['25L', '00C']","['U', 'D']",,"{'muct_id': '285', 'lighting': 'v', 'race_guess': 'b', 'gender_guess': 'w', 'quality': '3', 'quality_eyes': '3', 'quality_mouth': '3', 'quality_ears': '3', 'quality_hair': '3', 'quality_neck': '3', 'facial_hair': '0.0', 'notes': 'earrings', 'race_common': 'black', 'gender_common': 'woman'}","{'muct_id': '18', 'lighting': 'q', 'race_guess': 'b', 'gender_guess': 'w', 'quality': '3', 'quality_eyes': '3', 'quality_mouth': '3', 'quality_ears': '3', 'quality_hair': '3', 'quality_neck': '3', 'facial_hair': '0.0', 'notes': 'earrings', 'race_common': 'black', 'gender_common': 'woman'}",,,,,,,,,,,,,,,,,,,,,,,,,,,,,,,,,,,,,,,,,,,,,,626b33cea0ce07a0486c19f1,626b317e2da99f76c814befb,590884b2ac756c0001ecb837,,,,,,,,,,,,,,,,,,,,,0.822131872177124,"[0.7409974336624146, 0.8543796539306641]",,,,
11095,626b34761a371c538416a812,Chrome,1.0,main_task,1.0,1.0,chris,"4/28/2022, 8:42:30 PM",cqbz7lh19r6krarwzy7n,0.0-6.0,pilot_prolific_afc2,37,woman,101,0.0,white,00C,D,970.0,"['../stimuli/version1_gray_lm/id101_00C_D.png', '../stimuli/version1_gray_lm/id076_50L_C.png', '../stimuli/version1_gray_lm/id076_25R_U.png']",157301.0,0.0,15.0,2.0,encoding,woman,076,"[1, 2]",white,"['50L', '25R']","['C', 'U']",,"{'muct_id': '281', 'lighting': 't', 'race_guess': 'w', 'gender_guess': 'w', 'quality': '3', 'quality_eyes': '3', 'quality_mouth': '3', 'quality_ears': '3', 'quality_hair': '3', 'quality_neck': '3', 'facial_hair': '0.0', 'notes': None, 'race_common': 'white', 'gender_common': 'woman'}","{'muct_id': '233', 'lighting': 'u', 'race_guess': 'w', 'gender_guess': 'w', 'quality': '3', 'quality_eyes': '3', 'quality_mouth': '3', 'quality_ears': '3', 'quality_hair': '3', 'quality_neck': '3', 'facial_hair': '0.0', 'notes': 'earrings', 'race_common': 'white', 'gender_common': 'woman'}",,,,,,,,,,,,,,,,,,,,,,,,,,,,,,,,,,,,,,,,,,,,,,626b33cea0ce07a0486c19f1,626b317e2da99f76c814befb,590884b2ac756c0001ecb837,,,,,,,,,,,,,,,,,,,,,0.8530598878860474,"[0.7991483807563782, 0.8417189121246338]",,,,
11096,626b34781a371c538416a813,Chrome,2.0,main_task,1.0,2.0,chris,"4/28/2022, 8:42:32 PM",cqbz7lh19r6krarwzy7n,0.0-8.0,pilot_prolific_afc2,39,man,100,1.0,white,25R,U,1527.0,"['../stimuli/version1_gray_lm/id094_00C_C.png', '../stimuli/version1_gray_lm/id100_25R_U.png', '../stimuli/version1_gray_lm/id094_25L_D.png']",159728.0,0.0,17.0,3.0,encoding,man,094,"[0, 2]",white,"['00C', '25L']","['C', 'D']",,"{'muct_id': '280', 'lighting': 'u', 'race_guess': 'w', 'gender_guess': 'm', 'quality': '3', 'quality_eyes': '3', 'quality_mouth': '3', 'quality_ears': '3', 'quality_hair': '3', 'quality_neck': '3', 'facial_hair': '0.0', 'notes': None, 'race_common': 'white', 'gender_common': 'man'}","{'muct_id': '264', 'lighting': 't', 'race_guess': 'w', 'gender_guess': 'm', 'quality': '3', 'quality_eyes': '3', 'quality_mouth': '3', 'quality_ears': '3', 'quality_hair': '3', 'quality_neck': '3', 'facial_hair': '0.0', 'notes': None, 'race_common': 'white', 'gender_common': 'man'}",,,,,,,,,,,,,,,,,,,,,,,,,,,,,,,,,,,,,,,,,,,,,,626b33cea0ce07a0486c19f1,626b317e2da99f76c814befb,590884b2ac756c0001ecb837,,,,,,,,,,,,,,,,,,,,,0.7723164558410645,"[0.8873373866081238, 0.8378531336784363]",,,,
11097,626b347b1a371c538416a814,Chrome,3.0,main_task,1.0,3.0,chris,"4/28/2022, 8:42:35 PM",cqbz7lh19r6krarwzy7n,0.0-10.0,pilot_prolific_afc2,40,man,105,2.0,black,25R,D,1788.0,"['../stimuli/version1_gray_lm/id065_00C_U.png', '../stimuli/version1_gray_lm/id065_25L_C.png', '../stimuli/version1_gray_lm/id105_25R_D.png']",162189.0,0.0,19.0,4.0,encoding,man,065,"[0, 1]",black,"['00C', '25L']","['U', 'C']",,"{'muct_id': '290', 'lighting': 't', 'race_guess': 'b', 'gender_guess': 'm', 'quality': '3', 'quality_eyes': '3', 'quality_mouth': '3', 'quality_ears': '3', 'quality_hair': '3', 'quality_neck': '3', 'facial_hair': '2.0', 'notes': None, 'race_common': 'black', 'gender_common': 'man'}","{'muct_id': '206', 'lighting': 't', 'race_guess': 'b', 'gender_guess': 'm', 'quality': '3', 'quality_eyes': '3', 'quality_mouth': '3', 'quality_ears': '3', 'quality_hair': '3', 'quality_neck': '3', 'facial_hair': '1.0', 'notes': None, 'race_common': 'black', 'gender_common': 'man'}",,,,,,,,,,,,,,,,,,,,,,,,,,,,,,,,,,,,,,,,,,,,,,626b33cea0ce07a0486c19f1,626b317e2da99f76c814befb,590884b2ac756c0001ecb837,,,,,,,,,,,,,,,,,,,,,0.8421586751937866,"[0.8154619932174683, 0.8296511769294739]",,,,
11098,626b347e1a371c538416a815,Chrome,3.0,main_task,0.0,2.0,chris,"4/28/2022, 8:42:38 PM",cqbz7lh19r6krarwzy7n,0.0-12.0,pilot_prolific_afc2,40,man,107,1.0,black,50R,C,2236.0,"['../stimuli/version1_gray_lm/id098_00C_D.png', '../stimuli/version1_gray_lm/id107_50R_C.png', '../stimuli/version1_gray_lm/id098_50L_U.png']",165148.0,0.0,21.0,5.0,encoding,man,098,"[0, 2]",black,"['00C', '50L']","['D', 'U']",,"{'muct_id': '297', 'lighting': 't', 'race_guess': 'b', 'gender_guess': 'm', 'quality': '3', 'quality_eyes': '3', 'quality_mouth': '3', 'quality_ears': '3', 'quality_hair': '3', 'quality_neck': '3', 'facial_hair': '4.0', 'notes': 'beard', 'race_common': 'black', 'gender_common': 'man'}","{'muct_id': '274', 'lighting': 't', 'race_guess': 'b', 'gender_guess': 'm', 'quality': '3', 'quality_eyes': '3', 'quality_mouth': '3', 'quality_ears': '3', 'quality_hair': '3', 'quality_neck': '3', 'facial_hair': '4.0', 'notes': None, 'race_common': 'black', 'gender_common': 'man'}",,,,,,,,,,,,,,,,,,,,,,,,,,,,,,,,,,,,,,,,,,,,,,626b33cea0ce07a0486c19f1,626b317e2da99f76c814befb,590884b2ac756c0001ecb837,,,,,,,,,,,,,,,,,,,,,0.8026496767997742,"[0.8749359846115112, 0.7912300825119019]",,,,
11099,626b34801a371c538416a816,Chrome,1.0,main_task,1.0,1.0,chris,"4/28/2022, 8:42:40 PM",cqbz7lh19r6krarwzy7n,0.0-14.0,pilot_prolific_afc2,37,man,104,0.0,white,25L,U,1478.0,"['../stimuli/version1_gray_lm/id104_25L_U.png', '../stimuli/version1_gray_lm/id063_00C_D.png', '../stimuli/version1_gray_lm/id063_50R_C.png']",167522.0,0.0,23.0,6.0,encoding,man,063,"[1, 2]",white,"['00C', '50R']","['D', 'C']",,"{'muct_id': '287', 'lighting': 't', 'race_guess': 'w', 'gender_guess': 'm', 'quality': '3', 'quality_eyes': '3', 'quality_mouth': '3', 'quality_ears': '3', 'quality_hair': '3', 'quality_neck': '3', 'facial_hair': '2.0', 'notes': None, 'race_common': 'white', 'gender_common': 'man'}","{'muct_id': '203', 'lighting': 'u', 'race_guess': 'i', 'gender_guess': 'm', 'quality': '2', 'quality_eyes': '2', 'quality_mouth': '3', 'quality_ears': '3', 'quality_hair': '3', 'quality_neck': '3', 'facial_hair': '2.0', 'notes': 'mouth', 'race_common': 'white', 'gender_common': 'man'}",,,,,,,,,,,,,,,,,,,,,,,,,,,,,,,,,,,,,,,,,,,,,,626b33cea0ce07a0486c19f1,626b317e2da99f76c814befb,590884b2ac756c0001ecb837,,,,,,,,,,,,,,,,,,,,,0.7646272778511047,"[0.8642292022705078, 0.846563994884491]",,,,
11100,626b34831a371c538416a817,Chrome,2.0,main_task,1.0,2.0,chris,"4/28/2022, 8:42:43 PM",cqbz7lh19r6krarwzy7n,0.0-16.0,pilot_prolific_afc2,39,woman,102,1.0,white,00C,D,2269.0,"['../stimuli/version1_gray_lm/id007_25L_C.png', '../stimuli/version1_gray_lm/id102_00C_D.png', '../stimuli/version1_gray_lm/id007_50R_U.png']",170614.0,0.0,25.0,7.0,encoding,woman,007,"[0, 2]",white,"['25L', '50R']","['C', 'U']",,"{'muct_id': '283', 'lighting': 't', 'race_guess': 'i', 'gender_guess': 'w', 'quality': '3', 'quality_eyes': '3', 'quality_mouth': '3', 'quality_ears': '3', 'quality_hair': '3', 'quality_neck': '3', 'facial_hair': '0.0', 'notes': 'pottu', 'race_common': 'white', 'gender_common': 'woman'}","{'muct_id': '7', 'lighting': 's', 'race_guess': 'u', 'gender_guess': 'w', 'quality': '3', 'quality_eyes': '3', 'quality_mouth': '3', 'quality_ears': '3', 'quality_hair': '3', 'quality_neck': '3', 'facial_hair': '0.0', 'notes': None, 'race_common': 'white', 'gender_common': 'woman'}",,,,,,,,,,,,,,,,,,,,,,,,,,,,,,,,,,,,,,,,,,,,,,626b33cea0ce07a0486c19f1,626b317e2da99f76c814befb,590884b2ac756c0001ecb837,,,,,,,,,,,,,,,,,,,,,0.8271998167037964,"[0.841883659362793, 0.8594343662261963]",,,,
11101,626b34861a371c538416a818,Chrome,3.0,main_task,1.0,3.0,chris,"4/28/2022, 8:42:46 PM",cqbz7lh19r6krarwzy7n,0.0-18.0,pilot_prolific_afc2,40,woman,111,2.0,black,00C,U,1814.0,"['../stimuli/version1_gray_lm/id069_50R_D.png', '../stimuli/version1_gray_lm/id069_50L_C.png', '../stimuli/version1_gray_lm/id111_00C_U.png']",173297.0,0.0,27.0,8.0,encoding,woman,069,"[0, 1]",black,"['50R', '50L']","['D', 'C']",,"{'muct_id': '405', 'lighting': 'w', 'race_guess': 'b', 'gender_guess': 'w', 'quality': '3', 'quality_eyes': '3', 'quality_mouth': '3', 'quality_ears': '3', 'quality_hair': '3', 'quality_neck': '3', 'facial_hair': '0.0', 'notes': 'hair earrings', 'race_common': 'black', 'gender_common': 'woman'}","{'muct_id': '218', 'lighting': 't', 'race_guess': 'b', 'gender_guess': 'w', 'quality': '3', 'quality_eyes': '3', 'quality_mouth': '3', 'quality_ears': '3', 'quality_hair': '3', 'quality_neck': '3', 'facial_hair': '0.0', 'notes': None, 'race_common': 'black', 'gender_common': 'woman'}",,,,,,,,,,,,,,,,,,,,,,,,,,,,,,,,,,,,,,,,,,,,,,626b33cea0ce07a0486c19f1,626b317e2da99f76c814befb,590884b2ac756c0001ecb837,,,,,,,,,,,,,,,,,,,,,0.8701693415641785,"[0.8206061124801636, 0.8033117055892944]",,,,
11102,626b348a1a371c538416a819,Chrome,3.0,main_task,0.0,2.0,chris,"4/28/2022, 8:42:50 PM",cqbz7lh19r6krarwzy7n,0.0-20.0,pilot_prolific_afc2,40,woman,109,1.0,white,00C,U,3041.0,"['../stimuli/version1_gray_lm/id031_25R_D.png', '../stimuli/version1_gray_lm/id109_00C_U.png', '../stimuli/version1_gray_lm/id031_50L_C.png']",177113.0,0.0,29.0,9.0,encoding,woman,031,"[0, 2]",white,"['25R', '50L']","['D', 'C']",,"{'muct_id': '401', 'lighting': 'w', 'race_guess': 'w', 'gender_guess': 'w', 'quality': '3', 'quality_eyes': '3', 'quality_mouth': '3', 'quality_ears': '3', 'quality_hair': '3', 'quality_neck': '3', 'facial_hair': '0.0', 'notes': 'mouth', 'race_common': 'white', 'gender_common': 'woman'}","{'muct_id': '42', 'lighting': 'q', 'race_guess': 'u', 'gender_guess': 'w', 'quality': '2', 'quality_eyes': '3', 'quality_mouth': '3', 'quality_ears': '2', 'quality_hair': '3', 'quality_neck': '3', 'facial_hair': '0.0', 'notes': 'mouth', 'race_common': 'white', 'gender_common': 'woman'}",,,,,,,,,,,,,,,,,,,,,,,,,,,,,,,,,,,,,,,,,,,,,,626b33cea0ce07a0486c19f1,626b317e2da99f76c814befb,590884b2ac756c0001ecb837,,,,,,,,,,,,,,,,,,,,,0.8098484873771667,"[0.8261346817016602, 0.8262547850608826]",,,,
11103,626b348e1a371c538416a81a,Chrome,2.0,main_task,1.0,2.0,chris,"4/28/2022, 8:42:53 PM",cqbz7lh19r6krarwzy7n,0.0-22.0,pilot_prolific_afc2,39,man,113,1.0,black,25L,U,2641.0,"['../stimuli/version1_gray_lm/id081_00C_D.png', '../stimuli/version1_gray_lm/id113_25L_U.png', '../stimuli/version1_gray_lm/id081_50R_C.png']",180803.0,0.0,31.0,10.0,encoding,man,081,"[0, 2]",black,"['00C', '50R']","['D', 'C']",,"{'muct_id': '407', 'lighting': 'x', 'race_guess': 'u', 'gender_guess': 'm', 'quality': '3', 'quality_eyes': '3', 'quality_mouth': '3', 'quality_ears': '3', 'quality_hair': '3', 'quality_neck': '3', 'facial_hair': '3.0', 'notes': 'beard', 'race_common': 'black', 'gender_common': 'man'}","{'muct_id': '241', 'lighting': 't', 'race_guess': 'u', 'gender_guess': 'm', 'quality': '3', 'quality_eyes': '3', 'quality_mouth': '3', 'quality_ears': '3', 'quality_hair': '3', 'quality_neck': '3', 'facial_hair': '1.0', 'notes': 'mouth', 'race_common': 'black', 'gender_common': 'man'}",,,,,,,,,,,,,,,,,,,,,,,,,,,,,,,,,,,,,,,,,,,,,,626b33cea0ce07a0486c19f1,626b317e2da99f76c814befb,590884b2ac756c0001ecb837,,,,,,,,,,,,,,,,,,,,,0.7881785035133362,"[0.8712604641914368, 0.8097697496414185]",,,,
11104,626b34901a371c538416a81b,Chrome,2.0,main_task,1.0,2.0,chris,"4/28/2022, 8:42:56 PM",cqbz7lh19r6krarwzy7n,0.0-24.0,pilot_prolific_afc2,39,man,112,1.0,black,25L,C,1788.0,"['../stimuli/version1_gray_lm/id057_00C_D.png', '../stimuli/version1_gray_lm/id112_25L_C.png', '../stimuli/version1_gray_lm/id057_50R_U.png']",183437.0,0.0,33.0,11.0,encoding,man,057,"[0, 2]",black,"['00C', '50R']","['D', 'U']",,"{'muct_id': '406', 'lighting': 'w', 'race_guess': 'b', 'gender_guess': 'm', 'quality': '3', 'quality_eyes': '3', 'quality_mouth': '3', 'quality_ears': '3', 'quality_hair': '3', 'quality_neck': '3', 'facial_hair': '1.0', 'notes': None, 'race_common': 'black', 'gender_common': 'man'}","{'muct_id': '83', 'lighting': 'r', 'race_guess': 'b', 'gender_guess': 'm', 'quality': '3', 'quality_eyes': '3', 'quality_mouth': '3', 'quality_ears': '3', 'quality_hair': '3', 'quality_neck': '3', 'facial_hair': '3.0', 'notes': None, 'race_common': 'black', 'gender_common': 'man'}",,,,,,,,,,,,,,,,,,,,,,,,,,,,,,,,,,,,,,,,,,,,,,626b33cea0ce07a0486c19f1,626b317e2da99f76c814befb,590884b2ac756c0001ecb837,,,,,,,,,,,,,,,,,,,,,0.8308467864990234,"[0.8576472401618958, 0.8091771006584167]",,,,
11105,626b34931a371c538416a81c,Chrome,3.0,main_task,1.0,3.0,chris,"4/28/2022, 8:42:59 PM",cqbz7lh19r6krarwzy7n,0.0-26.0,pilot_prolific_afc2,40,woman,114,2.0,white,25L,D,1930.0,"['../stimuli/version1_gray_lm/id018_25R_U.png', '../stimuli/version1_gray_lm/id018_00C_C.png', '../stimuli/version1_gray_lm/id114_25L_D.png']",186130.0,0.0,35.0,12.0,encoding,woman,018,"[0, 1]",white,"['25R', '00C']","['U', 'C']",,"{'muct_id': '410', 'lighting': 'w', 'race_guess': 'w', 'gender_guess': 'w', 'quality': '3', 'quality_eyes': '3', 'quality_mouth': '3', 'quality_ears': '3', 'quality_hair': '3', 'quality_neck': '3', 'facial_hair': '0.0', 'notes': 'makeup mouth', 'race_common': 'white', 'gender_common': 'woman'}","{'muct_id': '21', 'lighting': 'q', 'race_guess': 'w', 'gender_guess': 'w', 'quality': '3', 'quality_eyes': '3', 'quality_mouth': '3', 'quality_ears': '3', 'quality_hair': '3', 'quality_neck': '3', 'facial_hair': '0.0', 'notes': None, 'race_common': 'white', 'gender_common': 'woman'}",,,,,,,,,,,,,,,,,,,,,,,,,,,,,,,,,,,,,,,,,,,,,,626b33cea0ce07a0486c19f1,626b317e2da99f76c814befb,590884b2ac756c0001ecb837,,,,,,,,,,,,,,,,,,,,,0.8753671050071716,"[0.7759636044502258, 0.8332737684249878]",,,,
11106,626b34951a371c538416a81d,Chrome,3.0,main_task,1.0,3.0,chris,"4/28/2022, 8:43:01 PM",cqbz7lh19r6krarwzy7n,0.0-28.0,pilot_prolific_afc2,40,man,117,2.0,black,25L,D,1628.0,"['../stimuli/version1_gray_lm/id033_00C_U.png', '../stimuli/version1_gray_lm/id033_25R_C.png', '../stimuli/version1_gray_lm/id117_25L_D.png']",188357.0,0.0,37.0,13.0,encoding,man,033,"[0, 1]",black,"['00C', '25R']","['U', 'C']",,"{'muct_id': '417', 'lighting': 'w', 'race_guess': 'b', 'gender_guess': 'm', 'quality': '3', 'quality_eyes': '3', 'quality_mouth': '3', 'quality_ears': '3', 'quality_hair': '3', 'quality_neck': '3', 'facial_hair': '1.0', 'notes': 'mouth', 'race_common': 'black', 'gender_common': 'man'}","{'muct_id': '44', 'lighting': 'q', 'race_guess': 'u', 'gender_guess': 'm', 'quality': '3', 'quality_eyes': '3', 'quality_mouth': '3', 'quality_ears': '3', 'quality_hair': '3', 'quality_neck': '3', 'facial_hair': '2.0', 'notes': None, 'race_common': 'black', 'gender_common': 'man'}",,,,,,,,,,,,,,,,,,,,,,,,,,,,,,,,,,,,,,,,,,,,,,626b33cea0ce07a0486c19f1,626b317e2da99f76c814befb,590884b2ac756c0001ecb837,,,,,,,,,,,,,,,,,,,,,0.8990145921707153,"[0.8042052388191223, 0.8311908841133118]",,,,
11107,626b34971a371c538416a81e,Chrome,2.0,main_task,1.0,2.0,chris,"4/28/2022, 8:43:03 PM",cqbz7lh19r6krarwzy7n,0.0-30.0,pilot_prolific_afc2,39,man,116,1.0,white,50R,U,1666.0,"['../stimuli/version1_gray_lm/id041_00C_C.png', '../stimuli/version1_gray_lm/id116_50R_U.png', '../stimuli/version1_gray_lm/id041_25L_D.png']",190552.0,0.0,39.0,14.0,encoding,man,041,"[0, 2]",white,"['00C', '25L']","['C', 'D']",,"{'muct_id': '414', 'lighting': 'w', 'race_guess': 'w', 'gender_guess': 'm', 'quality': '3', 'quality_eyes': '3', 'quality_mouth': '3', 'quality_ears': '3', 'quality_hair': '3', 'quality_neck': '3', 'facial_hair': '0.0', 'notes': None, 'race_common': 'white', 'gender_common': 'man'}","{'muct_id': '56', 'lighting': 'q', 'race_guess': 'w', 'gender_guess': 'm', 'quality': '3', 'quality_eyes': '3', 'quality_mouth': '3', 'quality_ears': '3', 'quality_hair': '3', 'quality_neck': '3', 'facial_hair': '0.0', 'notes': None, 'race_common': 'white', 'gender_common': 'man'}",,,,,,,,,,,,,,,,,,,,,,,,,,,,,,,,,,,,,,,,,,,,,,626b33cea0ce07a0486c19f1,626b317e2da99f76c814befb,590884b2ac756c0001ecb837,,,,,,,,,,,,,,,,,,,,,0.8376436829566956,"[0.8946332931518555, 0.84593665599823]",,,,
11108,626b349b1a371c538416a81f,Chrome,3.0,main_task,1.0,3.0,chris,"4/28/2022, 8:43:07 PM",cqbz7lh19r6krarwzy7n,0.0-32.0,pilot_prolific_afc2,40,man,115,2.0,white,50R,C,2399.0,"['../stimuli/version1_gray_lm/id047_50L_D.png', '../stimuli/version1_gray_lm/id047_00C_U.png', '../stimuli/version1_gray_lm/id115_50R_C.png']",193889.0,0.0,41.0,15.0,encoding,man,047,"[0, 1]",white,"['50L', '00C']","['D', 'U']",,"{'muct_id': '412', 'lighting': 'x', 'race_guess': 'w', 'gender_guess': 'm', 'quality': '3', 'quality_eyes': '3', 'quality_mouth': '3', 'quality_ears': '3', 'quality_hair': '3', 'quality_neck': '3', 'facial_hair': '0.0', 'notes': None, 'race_common': 'white', 'gender_common': 'man'}","{'muct_id': '64', 'lighting': 'q', 'race_guess': 'w', 'gender_guess': 'm', 'quality': '3', 'quality_eyes': '3', 'quality_mouth': '3', 'quality_ears': '3', 'quality_hair': '3', 'quality_neck': '3', 'facial_hair': '0.0', 'notes': None, 'race_common': 'white', 'gender_common': 'man'}",,,,,,,,,,,,,,,,,,,,,,,,,,,,,,,,,,,,,,,,,,,,,,626b33cea0ce07a0486c19f1,626b317e2da99f76c814befb,590884b2ac756c0001ecb837,,,,,,,,,,,,,,,,,,,,,0.8281219601631165,"[0.8029583692550659, 0.7971649765968323]",,,,
11109,626b349d1a371c538416a820,Chrome,3.0,main_task,1.0,3.0,chris,"4/28/2022, 8:43:09 PM",cqbz7lh19r6krarwzy7n,0.0-34.0,pilot_prolific_afc2,40,man,118,2.0,black,25L,D,1753.0,"['../stimuli/version1_gray_lm/id090_00C_C.png', '../stimuli/version1_gray_lm/id090_50R_U.png', '../stimuli/version1_gray_lm/id118_25L_D.png']",196169.0,0.0,43.0,16.0,encoding,man,090,"[0, 1]",black,"['00C', '50R']","['C', 'U']",,"{'muct_id': '419', 'lighting': 'x', 'race_guess': 'b', 'gender_guess': 'm', 'quality': '3', 'quality_eyes': '3', 'quality_mouth': '3', 'quality_ears': '3', 'quality_hair': '3', 'quality_neck': '3', 'facial_hair': '1.0', 'notes': None, 'race_common': 'black', 'gender_common': 'man'}","{'muct_id': '259', 'lighting': 'v', 'race_guess': 'b', 'gender_guess': 'm', 'quality': '3', 'quality_eyes': '3', 'quality_mouth': '3', 'quality_ears': '3', 'quality_hair': '3', 'quality_neck': '3', 'facial_hair': '2.0', 'notes': None, 'race_common': 'black', 'gender_common': 'man'}",,,,,,,,,,,,,,,,,,,,,,,,,,,,,,,,,,,,,,,,,,,,,,626b33cea0ce07a0486c19f1,626b317e2da99f76c814befb,590884b2ac756c0001ecb837,,,,,,,,,,,,,,,,,,,,,0.8424684405326843,"[0.8071134090423584, 0.796045184135437]",,,,
11110,626b34a11a371c538416a821,Chrome,1.0,main_task,0.0,2.0,chris,"4/28/2022, 8:43:13 PM",cqbz7lh19r6krarwzy7n,0.0-36.0,pilot_prolific_afc2,37,man,119,1.0,black,25L,U,3566.0,"['../stimuli/version1_gray_lm/id036_50R_D.png', '../stimuli/version1_gray_lm/id119_25L_U.png', '../stimuli/version1_gray_lm/id036_00C_C.png']",200235.0,0.0,45.0,17.0,encoding,man,036,"[0, 2]",black,"['50R', '00C']","['D', 'C']",,"{'muct_id': '420', 'lighting': 'w', 'race_guess': 'b', 'gender_guess': 'm', 'quality': '3', 'quality_eyes': '3', 'quality_mouth': '3', 'quality_ears': '3', 'quality_hair': '3', 'quality_neck': '3', 'facial_hair': '0.0', 'notes': None, 'race_common': 'black', 'gender_common': 'man'}","{'muct_id': '47', 'lighting': 'q', 'race_guess': 'b', 'gender_guess': 'u', 'quality': '3', 'quality_eyes': '3', 'quality_mouth': '3', 'quality_ears': '3', 'quality_hair': '3', 'quality_neck': '3', 'facial_hair': '0.0', 'notes': None, 'race_common': 'black', 'gender_common': 'man'}",,,,,,,,,,,,,,,,,,,,,,,,,,,,,,,,,,,,,,,,,,,,,,626b33cea0ce07a0486c19f1,626b317e2da99f76c814befb,590884b2ac756c0001ecb837,,,,,,,,,,,,,,,,,,,,,0.7902446389198303,"[0.8161764740943909, 0.8442365527153015]",,,,
11111,626b34a31a371c538416a822,Chrome,3.0,main_task,0.0,2.0,chris,"4/28/2022, 8:43:15 PM",cqbz7lh19r6krarwzy7n,0.0-38.0,pilot_prolific_afc2,40,woman,120,1.0,black,50R,C,1634.0,"['../stimuli/version1_gray_lm/id005_00C_D.png', '../stimuli/version1_gray_lm/id120_50R_C.png', '../stimuli/version1_gray_lm/id005_25L_U.png']",202456.0,0.0,47.0,18.0,encoding,woman,005,"[0, 2]",black,"['00C', '25L']","['D', 'U']",,"{'muct_id': '421', 'lighting': 'x', 'race_guess': 'b', 'gender_guess': 'w', 'quality': '3', 'quality_eyes': '3', 'quality_mouth': '3', 'quality_ears': '3', 'quality_hair': '3', 'quality_neck': '3', 'facial_hair': '0.0', 'notes': None, 'race_common': 'black', 'gender_common': 'woman'}","{'muct_id': '5', 'lighting': 'q', 'race_guess': 'b', 'gender_guess': 'w', 'quality': '3', 'quality_eyes': '3', 'quality_mouth': '3', 'quality_ears': '3', 'quality_hair': '3', 'quality_neck': '3', 'facial_hair': '0.0', 'notes': 'hat', 'race_common': 'black', 'gender_common': 'woman'}",,,,,,,,,,,,,,,,,,,,,,,,,,,,,,,,,,,,,,,,,,,,,,626b33cea0ce07a0486c19f1,626b317e2da99f76c814befb,590884b2ac756c0001ecb837,,,,,,,,,,,,,,,,,,,,,0.8386717438697815,"[0.8830249309539795, 0.7520265579223633]",,,,
11112,626b34a61a371c538416a823,Chrome,1.0,main_task,1.0,1.0,chris,"4/28/2022, 8:43:18 PM",cqbz7lh19r6krarwzy7n,0.0-40.0,pilot_prolific_afc2,37,woman,125,0.0,white,00C,C,2282.0,"['../stimuli/version1_gray_lm/id125_00C_C.png', '../stimuli/version1_gray_lm/id054_50R_D.png', '../stimuli/version1_gray_lm/id054_50L_U.png']",205224.0,0.0,49.0,19.0,encoding,woman,054,"[1, 2]",white,"['50R', '50L']","['D', 'U']",,"{'muct_id': '433', 'lighting': 'x', 'race_guess': 'w', 'gender_guess': 'w', 'quality': '3', 'quality_eyes': '3', 'quality_mouth': '3', 'quality_ears': '3', 'quality_hair': '3', 'quality_neck': '3', 'facial_hair': '0.0', 'notes': None, 'race_common': 'white', 'gender_common': 'woman'}","{'muct_id': '80', 'lighting': 's', 'race_guess': 'b', 'gender_guess': 'w', 'quality': '3', 'quality_eyes': '3', 'quality_mouth': '3', 'quality_ears': '3', 'quality_hair': '3', 'quality_neck': '3', 'facial_hair': '0.0', 'notes': 'earrings', 'race_common': 'white', 'gender_common': 'woman'}",,,,,,,,,,,,,,,,,,,,,,,,,,,,,,,,,,,,,,,,,,,,,,626b33cea0ce07a0486c19f1,626b317e2da99f76c814befb,590884b2ac756c0001ecb837,,,,,,,,,,,,,,,,,,,,,0.8504757285118103,"[0.8033819794654846, 0.782159686088562]",,,,
11113,626b34a81a371c538416a824,Chrome,1.0,main_task,1.0,1.0,chris,"4/28/2022, 8:43:20 PM",cqbz7lh19r6krarwzy7n,0.0-42.0,pilot_prolific_afc2,37,woman,123,0.0,white,00C,D,1676.0,"['../stimuli/version1_gray_lm/id123_00C_D.png', '../stimuli/version1_gray_lm/id003_50R_C.png', '../stimuli/version1_gray_lm/id003_50L_U.png']",207325.0,0.0,51.0,20.0,encoding,woman,003,"[1, 2]",white,"['50R', '50L']","['C', 'U']",,"{'muct_id': '76', 'lighting': 'q', 'race_guess': 'w', 'gender_guess': 'w', 'quality': '2', 'quality_eyes': '2', 'quality_mouth': '3', 'quality_ears': '2', 'quality_hair': '2', 'quality_neck': '3', 'facial_hair': '0.0', 'notes': 'hair', 'race_common': 'white', 'gender_common': 'woman'}","{'muct_id': '3', 'lighting': 's', 'race_guess': 'i', 'gender_guess': 'w', 'quality': '2', 'quality_eyes': '3', 'quality_mouth': '3', 'quality_ears': '3', 'quality_hair': '2', 'quality_neck': '3', 'facial_hair': '0.0', 'notes': 'hair', 'race_common': 'white', 'gender_common': 'woman'}",,,,,,,,,,,,,,,,,,,,,,,,,,,,,,,,,,,,,,,,,,,,,,626b33cea0ce07a0486c19f1,626b317e2da99f76c814befb,590884b2ac756c0001ecb837,,,,,,,,,,,,,,,,,,,,,0.8291328549385071,"[0.8172897696495056, 0.7647145986557007]",,,,
11114,626b34ab1a371c538416a825,Chrome,1.0,main_task,1.0,1.0,chris,"4/28/2022, 8:43:23 PM",cqbz7lh19r6krarwzy7n,0.0-44.0,pilot_prolific_afc2,37,man,122,0.0,black,00C,D,2015.0,"['../stimuli/version1_gray_lm/id122_00C_D.png', '../stimuli/version1_gray_lm/id058_25R_C.png', '../stimuli/version1_gray_lm/id058_50L_U.png']",209881.0,0.0,53.0,21.0,encoding,man,058,"[1, 2]",black,"['25R', '50L']","['C', 'U']",,"{'muct_id': '425', 'lighting': 'x', 'race_guess': 'b', 'gender_guess': 'm', 'quality': '3', 'quality_eyes': '3', 'quality_mouth': '3', 'quality_ears': '3', 'quality_hair': '3', 'quality_neck': '3', 'facial_hair': '2.0', 'notes': None, 'race_common': 'black', 'gender_common': 'man'}","{'muct_id': '84', 'lighting': 'q', 'race_guess': 'b', 'gender_guess': 'm', 'quality': '2', 'quality_eyes': '2', 'quality_mouth': '3', 'quality_ears': '3', 'quality_hair': '3', 'quality_neck': '3', 'facial_hair': '3.0', 'notes': 'beard', 'race_common': 'black', 'gender_common': 'man'}",,,,,,,,,,,,,,,,,,,,,,,,,,,,,,,,,,,,,,,,,,,,,,626b33cea0ce07a0486c19f1,626b317e2da99f76c814befb,590884b2ac756c0001ecb837,,,,,,,,,,,,,,,,,,,,,0.8157645463943481,"[0.8090335726737976, 0.7713642716407776]",,,,
11115,626b34ad1a371c538416a826,Chrome,1.0,main_task,0.0,2.0,chris,"4/28/2022, 8:43:25 PM",cqbz7lh19r6krarwzy7n,0.0-46.0,pilot_prolific_afc2,37,man,121,1.0,black,00C,C,2143.0,"['../stimuli/version1_gray_lm/id056_25L_D.png', '../stimuli/version1_gray_lm/id121_00C_C.png', '../stimuli/version1_gray_lm/id056_50R_U.png']",212561.0,0.0,55.0,22.0,encoding,man,056,"[0, 2]",black,"['25L', '50R']","['D', 'U']",,"{'muct_id': '423', 'lighting': 'w', 'race_guess': 'b', 'gender_guess': 'm', 'quality': '3', 'quality_eyes': '3', 'quality_mouth': '3', 'quality_ears': '3', 'quality_hair': '3', 'quality_neck': '3', 'facial_hair': '1.0', 'notes': None, 'race_common': 'black', 'gender_common': 'man'}","{'muct_id': '82', 'lighting': 'q', 'race_guess': 'b', 'gender_guess': 'm', 'quality': '3', 'quality_eyes': '3', 'quality_mouth': '3', 'quality_ears': '3', 'quality_hair': '3', 'quality_neck': '3', 'facial_hair': '1.0', 'notes': None, 'race_common': 'black', 'gender_common': 'man'}",,,,,,,,,,,,,,,,,,,,,,,,,,,,,,,,,,,,,,,,,,,,,,626b33cea0ce07a0486c19f1,626b317e2da99f76c814befb,590884b2ac756c0001ecb837,,,,,,,,,,,,,,,,,,,,,0.8360601663589478,"[0.8538694381713867, 0.8148695826530457]",,,,
11116,626b34b11a371c538416a827,Chrome,1.0,main_task,1.0,1.0,chris,"4/28/2022, 8:43:29 PM",cqbz7lh19r6krarwzy7n,0.0-48.0,pilot_prolific_afc2,37,woman,141,0.0,white,00C,U,3645.0,"['../stimuli/version1_gray_lm/id141_00C_U.png', '../stimuli/version1_gray_lm/id153_50R_C.png', '../stimuli/version1_gray_lm/id153_25L_D.png']",216577.0,0.0,57.0,23.0,encoding,woman,153,"[1, 2]",white,"['50R', '25L']","['C', 'D']",,"{'muct_id': '77', 'lighting': 's', 'race_guess': 'w', 'gender_guess': 'w', 'quality': '3', 'quality_eyes': '3', 'quality_mouth': '3', 'quality_ears': '3', 'quality_hair': '3', 'quality_neck': '3', 'facial_hair': '0.0', 'notes': None, 'race_common': 'white', 'gender_common': 'woman'}","{'muct_id': '437', 'lighting': 'x', 'race_guess': 'w', 'gender_guess': 'w', 'quality': '3', 'quality_eyes': '3', 'quality_mouth': '3', 'quality_ears': '3', 'quality_hair': '3', 'quality_neck': '3', 'facial_hair': '0.0', 'notes': 'hair', 'race_common': 'white', 'gender_common': 'woman'}",,,,,,,,,,,,,,,,,,,,,,,,,,,,,,,,,,,,,,,,,,,,,,626b33cea0ce07a0486c19f1,626b317e2da99f76c814befb,590884b2ac756c0001ecb837,,,,,,,,,,,,,,,,,,,,,0.8290002346038818,"[0.775448739528656, 0.8513438701629639]",,,,
11117,626b34b51a371c538416a828,Chrome,2.0,main_task,1.0,2.0,chris,"4/28/2022, 8:43:33 PM",cqbz7lh19r6krarwzy7n,0.0-50.0,pilot_prolific_afc2,39,man,131,1.0,white,25L,D,3136.0,"['../stimuli/version1_gray_lm/id061_00C_C.png', '../stimuli/version1_gray_lm/id131_25L_D.png', '../stimuli/version1_gray_lm/id061_25R_U.png']",220218.0,0.0,59.0,24.0,encoding,man,061,"[0, 2]",white,"['00C', '25R']","['C', 'U']",,"{'muct_id': '442', 'lighting': 'x', 'race_guess': 'w', 'gender_guess': 'm', 'quality': '3', 'quality_eyes': '3', 'quality_mouth': '3', 'quality_ears': '3', 'quality_hair': '3', 'quality_neck': '3', 'facial_hair': '2.0', 'notes': None, 'race_common': 'white', 'gender_common': 'man'}","{'muct_id': '89', 'lighting': 'r', 'race_guess': 'w', 'gender_guess': 'm', 'quality': '3', 'quality_eyes': '3', 'quality_mouth': '3', 'quality_ears': '3', 'quality_hair': '3', 'quality_neck': '3', 'facial_hair': '2.0', 'notes': None, 'race_common': 'white', 'gender_common': 'man'}",,,,,,,,,,,,,,,,,,,,,,,,,,,,,,,,,,,,,,,,,,,,,,626b33cea0ce07a0486c19f1,626b317e2da99f76c814befb,590884b2ac756c0001ecb837,,,,,,,,,,,,,,,,,,,,,0.8414819240570068,"[0.8612361550331116, 0.8407583832740784]",,,,
11118,626b34b81a371c538416a829,Chrome,1.0,main_task,0.0,3.0,chris,"4/28/2022, 8:43:35 PM",cqbz7lh19r6krarwzy7n,0.0-52.0,pilot_prolific_afc2,37,woman,126,2.0,black,25R,C,2057.0,"['../stimuli/version1_gray_lm/id068_00C_D.png', '../stimuli/version1_gray_lm/id068_25L_U.png', '../stimuli/version1_gray_lm/id126_25R_C.png']",222762.0,0.0,61.0,25.0,encoding,woman,068,"[0, 1]",black,"['00C', '25L']","['D', 'U']",,"{'muct_id': '434', 'lighting': 'w', 'race_guess': 'b', 'gender_guess': 'w', 'quality': '3', 'quality_eyes': '3', 'quality_mouth': '3', 'quality_ears': '3', 'quality_hair': '3', 'quality_neck': '3', 'facial_hair': '0.0', 'notes': 'earrings', 'race_common': 'black', 'gender_common': 'woman'}","{'muct_id': '213', 'lighting': 'u', 'race_guess': 'b', 'gender_guess': 'w', 'quality': '3', 'quality_eyes': '3', 'quality_mouth': '3', 'quality_ears': '3', 'quality_hair': '3', 'quality_neck': '3', 'facial_hair': '0.0', 'notes': None, 'race_common': 'black', 'gender_common': 'woman'}",,,,,,,,,,,,,,,,,,,,,,,,,,,,,,,,,,,,,,,,,,,,,,626b33cea0ce07a0486c19f1,626b317e2da99f76c814befb,590884b2ac756c0001ecb837,,,,,,,,,,,,,,,,,,,,,0.8141570091247559,"[0.8593959212303162, 0.8137908577919006]",,,,
11119,626b34ba1a371c538416a82a,Chrome,1.0,main_task,1.0,1.0,chris,"4/28/2022, 8:43:38 PM",cqbz7lh19r6krarwzy7n,0.0-54.0,pilot_prolific_afc2,37,man,143,0.0,white,00C,D,1740.0,"['../stimuli/version1_gray_lm/id143_00C_D.png', '../stimuli/version1_gray_lm/id093_50R_C.png', '../stimuli/version1_gray_lm/id093_25L_U.png']",225042.0,0.0,63.0,26.0,encoding,man,093,"[1, 2]",white,"['50R', '25L']","['C', 'U']",,"{'muct_id': '90', 'lighting': 'q', 'race_guess': 'u', 'gender_guess': 'm', 'quality': '2', 'quality_eyes': '3', 'quality_mouth': '3', 'quality_ears': '2', 'quality_hair': '3', 'quality_neck': '3', 'facial_hair': '4.0', 'notes': 'beard', 'race_common': 'white', 'gender_common': 'man'}","{'muct_id': '263', 'lighting': 'u', 'race_guess': 'w', 'gender_guess': 'm', 'quality': '3', 'quality_eyes': '3', 'quality_mouth': '3', 'quality_ears': '3', 'quality_hair': '3', 'quality_neck': '3', 'facial_hair': '2.0', 'notes': None, 'race_common': 'white', 'gender_common': 'man'}",,,,,,,,,,,,,,,,,,,,,,,,,,,,,,,,,,,,,,,,,,,,,,626b33cea0ce07a0486c19f1,626b317e2da99f76c814befb,590884b2ac756c0001ecb837,,,,,,,,,,,,,,,,,,,,,0.861963152885437,"[0.8169742226600647, 0.8253141641616821]",,,,
11120,626b34bc1a371c538416a82b,Chrome,2.0,main_task,1.0,2.0,chris,"4/28/2022, 8:43:40 PM",cqbz7lh19r6krarwzy7n,0.0-56.0,pilot_prolific_afc2,39,man,145,1.0,white,25R,D,1936.0,"['../stimuli/version1_gray_lm/id049_00C_C.png', '../stimuli/version1_gray_lm/id145_25R_D.png', '../stimuli/version1_gray_lm/id049_25L_U.png']",227493.0,0.0,65.0,27.0,encoding,man,049,"[0, 2]",white,"['00C', '25L']","['C', 'U']",,"{'muct_id': '230', 'lighting': 'u', 'race_guess': 'w', 'gender_guess': 'm', 'quality': '3', 'quality_eyes': '3', 'quality_mouth': '3', 'quality_ears': '3', 'quality_hair': '3', 'quality_neck': '3', 'facial_hair': '0.0', 'notes': 'hair', 'race_common': 'white', 'gender_common': 'man'}","{'muct_id': '66', 'lighting': 'r', 'race_guess': 'w', 'gender_guess': 'm', 'quality': '3', 'quality_eyes': '3', 'quality_mouth': '3', 'quality_ears': '3', 'quality_hair': '3', 'quality_neck': '3', 'facial_hair': '0.0', 'notes': None, 'race_common': 'white', 'gender_common': 'man'}",,,,,,,,,,,,,,,,,,,,,,,,,,,,,,,,,,,,,,,,,,,,,,626b33cea0ce07a0486c19f1,626b317e2da99f76c814befb,590884b2ac756c0001ecb837,,,,,,,,,,,,,,,,,,,,,0.8234713673591614,"[0.8645100593566895, 0.7707574367523193]",,,,
11121,626b34bf1a371c538416a82c,Chrome,2.0,main_task,0.0,3.0,chris,"4/28/2022, 8:43:43 PM",cqbz7lh19r6krarwzy7n,0.0-58.0,pilot_prolific_afc2,39,man,124,2.0,black,25R,D,2453.0,"['../stimuli/version1_gray_lm/id055_00C_C.png', '../stimuli/version1_gray_lm/id055_25L_U.png', '../stimuli/version1_gray_lm/id124_25R_D.png']",230420.0,0.0,67.0,28.0,encoding,man,055,"[0, 1]",black,"['00C', '25L']","['C', 'U']",,"{'muct_id': '431', 'lighting': 'x', 'race_guess': 'b', 'gender_guess': 'u', 'quality': '3', 'quality_eyes': '3', 'quality_mouth': '3', 'quality_ears': '3', 'quality_hair': '3', 'quality_neck': '3', 'facial_hair': '0.0', 'notes': 'mouth', 'race_common': 'black', 'gender_common': 'man'}","{'muct_id': '81', 'lighting': 'q', 'race_guess': 'b', 'gender_guess': 'm', 'quality': '3', 'quality_eyes': '3', 'quality_mouth': '3', 'quality_ears': '3', 'quality_hair': '3', 'quality_neck': '3', 'facial_hair': '0.0', 'notes': None, 'race_common': 'black', 'gender_common': 'man'}",,,,,,,,,,,,,,,,,,,,,,,,,,,,,,,,,,,,,,,,,,,,,,626b33cea0ce07a0486c19f1,626b317e2da99f76c814befb,590884b2ac756c0001ecb837,,,,,,,,,,,,,,,,,,,,,0.8592950701713562,"[0.8770107626914978, 0.7932624816894531]",,,,
11122,626b34c21a371c538416a82d,Chrome,1.0,main_task,1.0,1.0,chris,"4/28/2022, 8:43:46 PM",cqbz7lh19r6krarwzy7n,0.0-60.0,pilot_prolific_afc2,37,woman,127,0.0,black,25R,U,2261.0,"['../stimuli/version1_gray_lm/id127_25R_U.png', '../stimuli/version1_gray_lm/id144_00C_C.png', '../stimuli/version1_gray_lm/id144_25L_D.png']",233178.0,0.0,69.0,29.0,encoding,woman,144,"[1, 2]",black,"['00C', '25L']","['C', 'D']",,"{'muct_id': '435', 'lighting': 'x', 'race_guess': 'b', 'gender_guess': 'w', 'quality': '3', 'quality_eyes': '3', 'quality_mouth': '3', 'quality_ears': '3', 'quality_hair': '3', 'quality_neck': '3', 'facial_hair': '0.0', 'notes': 'bandana', 'race_common': 'black', 'gender_common': 'woman'}","{'muct_id': '214', 'lighting': 'u', 'race_guess': 'b', 'gender_guess': 'w', 'quality': '2', 'quality_eyes': '2', 'quality_mouth': '3', 'quality_ears': '3', 'quality_hair': '3', 'quality_neck': '3', 'facial_hair': '0.0', 'notes': None, 'race_common': 'black', 'gender_common': 'woman'}",,,,,,,,,,,,,,,,,,,,,,,,,,,,,,,,,,,,,,,,,,,,,,626b33cea0ce07a0486c19f1,626b317e2da99f76c814befb,590884b2ac756c0001ecb837,,,,,,,,,,,,,,,,,,,,,0.790308952331543,"[0.7981672286987305, 0.8706281185150146]",,,,
11123,626b34c51a371c538416a82e,Chrome,1.0,main_task,1.0,1.0,chris,"4/28/2022, 8:43:49 PM",cqbz7lh19r6krarwzy7n,0.0-62.0,pilot_prolific_afc2,37,woman,148,0.0,white,25L,U,2978.0,"['../stimuli/version1_gray_lm/id148_25L_U.png', '../stimuli/version1_gray_lm/id051_25R_C.png', '../stimuli/version1_gray_lm/id051_00C_D.png']",236608.0,0.0,71.0,30.0,encoding,woman,051,"[1, 2]",white,"['25R', '00C']","['C', 'D']",,"{'muct_id': '415', 'lighting': 'w', 'race_guess': 'w', 'gender_guess': 'w', 'quality': '3', 'quality_eyes': '3', 'quality_mouth': '3', 'quality_ears': '3', 'quality_hair': '3', 'quality_neck': '3', 'facial_hair': '0.0', 'notes': None, 'race_common': 'white', 'gender_common': 'woman'}","{'muct_id': '74', 'lighting': 'q', 'race_guess': 'w', 'gender_guess': 'w', 'quality': '3', 'quality_eyes': '3', 'quality_mouth': '3', 'quality_ears': '3', 'quality_hair': '3', 'quality_neck': '3', 'facial_hair': '0.0', 'notes': None, 'race_common': 'white', 'gender_common': 'woman'}",,,,,,,,,,,,,,,,,,,,,,,,,,,,,,,,,,,,,,,,,,,,,,626b33cea0ce07a0486c19f1,626b317e2da99f76c814befb,590884b2ac756c0001ecb837,,,,,,,,,,,,,,,,,,,,,0.809009850025177,"[0.8559321761131287, 0.8626878261566162]",,,,
11124,626b34c81a371c538416a82f,Chrome,2.0,main_task,1.0,2.0,chris,"4/28/2022, 8:43:52 PM",cqbz7lh19r6krarwzy7n,0.0-64.0,pilot_prolific_afc2,39,man,146,1.0,white,50R,U,1856.0,"['../stimuli/version1_gray_lm/id156_50L_C.png', '../stimuli/version1_gray_lm/id146_50R_U.png', '../stimuli/version1_gray_lm/id156_00C_D.png']",239031.0,0.0,73.0,31.0,encoding,man,156,"[0, 2]",white,"['50L', '00C']","['C', 'D']",,"{'muct_id': '254', 'lighting': 'v', 'race_guess': 'w', 'gender_guess': 'm', 'quality': '2', 'quality_eyes': '2', 'quality_mouth': '3', 'quality_ears': '3', 'quality_hair': '2', 'quality_neck': '3', 'facial_hair': '0.0', 'notes': 'hair', 'race_common': 'white', 'gender_common': 'man'}","{'muct_id': '258', 'lighting': 'u', 'race_guess': 'w', 'gender_guess': 'm', 'quality': '2', 'quality_eyes': '3', 'quality_mouth': '3', 'quality_ears': '3', 'quality_hair': '2', 'quality_neck': '3', 'facial_hair': '0.0', 'notes': 'hair', 'race_common': 'white', 'gender_common': 'man'}",,,,,,,,,,,,,,,,,,,,,,,,,,,,,,,,,,,,,,,,,,,,,,626b33cea0ce07a0486c19f1,626b317e2da99f76c814befb,590884b2ac756c0001ecb837,,,,,,,,,,,,,,,,,,,,,0.7889776825904846,"[0.8053999543190002, 0.8686330318450928]",,,,
11125,626b34cc1a371c538416a830,Chrome,3.0,main_task,1.0,3.0,chris,"4/28/2022, 8:43:56 PM",cqbz7lh19r6krarwzy7n,0.0-66.0,pilot_prolific_afc2,40,man,128,2.0,black,00C,C,3942.0,"['../stimuli/version1_gray_lm/id091_25R_D.png', '../stimuli/version1_gray_lm/id091_50L_U.png', '../stimuli/version1_gray_lm/id128_00C_C.png']",243574.0,0.0,75.0,32.0,encoding,man,091,"[0, 1]",black,"['25R', '50L']","['D', 'U']",,"{'muct_id': '436', 'lighting': 'w', 'race_guess': 'b', 'gender_guess': 'm', 'quality': '3', 'quality_eyes': '3', 'quality_mouth': '3', 'quality_ears': '3', 'quality_hair': '3', 'quality_neck': '3', 'facial_hair': '3.0', 'notes': 'beard', 'race_common': 'black', 'gender_common': 'man'}","{'muct_id': '260', 'lighting': 't', 'race_guess': 'b', 'gender_guess': 'm', 'quality': '3', 'quality_eyes': '3', 'quality_mouth': '3', 'quality_ears': '3', 'quality_hair': '3', 'quality_neck': '3', 'facial_hair': '4.0', 'notes': 'beard', 'race_common': 'black', 'gender_common': 'man'}",,,,,,,,,,,,,,,,,,,,,,,,,,,,,,,,,,,,,,,,,,,,,,626b33cea0ce07a0486c19f1,626b317e2da99f76c814befb,590884b2ac756c0001ecb837,,,,,,,,,,,,,,,,,,,,,0.8150124549865723,"[0.8263843655586243, 0.820464015007019]",,,,
11126,626b34d01a371c538416a831,Chrome,2.0,main_task,0.0,1.0,chris,"4/28/2022, 8:43:59 PM",cqbz7lh19r6krarwzy7n,0.0-68.0,pilot_prolific_afc2,39,man,149,0.0,white,50R,C,2648.0,"['../stimuli/version1_gray_lm/id149_50R_C.png', '../stimuli/version1_gray_lm/id089_00C_U.png', '../stimuli/version1_gray_lm/id089_25L_D.png']",246748.0,0.0,77.0,33.0,encoding,man,089,"[1, 2]",white,"['00C', '25L']","['U', 'D']",,"{'muct_id': '416', 'lighting': 'w', 'race_guess': 'w', 'gender_guess': 'm', 'quality': '3', 'quality_eyes': '3', 'quality_mouth': '3', 'quality_ears': '3', 'quality_hair': '3', 'quality_neck': '3', 'facial_hair': '2.0', 'notes': None, 'race_common': 'white', 'gender_common': 'man'}","{'muct_id': '255', 'lighting': 't', 'race_guess': 'w', 'gender_guess': 'm', 'quality': '3', 'quality_eyes': '3', 'quality_mouth': '3', 'quality_ears': '3', 'quality_hair': '3', 'quality_neck': '3', 'facial_hair': '2.0', 'notes': None, 'race_common': 'white', 'gender_common': 'man'}",,,,,,,,,,,,,,,,,,,,,,,,,,,,,,,,,,,,,,,,,,,,,,626b33cea0ce07a0486c19f1,626b317e2da99f76c814befb,590884b2ac756c0001ecb837,,,,,,,,,,,,,,,,,,,,,0.8044806718826294,"[0.8635239005088806, 0.8646520972251892]",,,,
11127,626b34d31a371c538416a832,Chrome,1.0,main_task,1.0,1.0,chris,"4/28/2022, 8:44:03 PM",cqbz7lh19r6krarwzy7n,0.0-70.0,pilot_prolific_afc2,37,woman,150,0.0,white,25R,D,2961.0,"['../stimuli/version1_gray_lm/id150_25R_D.png', '../stimuli/version1_gray_lm/id029_00C_U.png', '../stimuli/version1_gray_lm/id029_50L_C.png']",250188.0,0.0,79.0,34.0,encoding,woman,029,"[1, 2]",white,"['00C', '50L']","['U', 'C']",,"{'muct_id': '422', 'lighting': 'w', 'race_guess': 'u', 'gender_guess': 'w', 'quality': '3', 'quality_eyes': '3', 'quality_mouth': '3', 'quality_ears': '3', 'quality_hair': '3', 'quality_neck': '3', 'facial_hair': '0.0', 'notes': 'mouth', 'race_common': 'white', 'gender_common': 'woman'}","{'muct_id': '39', 'lighting': 'r', 'race_guess': 'w', 'gender_guess': 'w', 'quality': '3', 'quality_eyes': '3', 'quality_mouth': '3', 'quality_ears': '3', 'quality_hair': '3', 'quality_neck': '3', 'facial_hair': '0.0', 'notes': 'earrings hair', 'race_common': 'white', 'gender_common': 'woman'}",,,,,,,,,,,,,,,,,,,,,,,,,,,,,,,,,,,,,,,,,,,,,,626b33cea0ce07a0486c19f1,626b317e2da99f76c814befb,590884b2ac756c0001ecb837,,,,,,,,,,,,,,,,,,,,,0.8566619753837585,"[0.8421358466148376, 0.8046281933784485]",,,,
11128,626b34d71a371c538416a833,Chrome,1.0,main_task,0.0,2.0,chris,"4/28/2022, 8:44:07 PM",cqbz7lh19r6krarwzy7n,0.0-72.0,pilot_prolific_afc2,37,woman,133,1.0,black,50L,D,2691.0,"['../stimuli/version1_gray_lm/id027_00C_U.png', '../stimuli/version1_gray_lm/id133_50L_D.png', '../stimuli/version1_gray_lm/id027_25R_C.png']",253943.0,0.0,81.0,35.0,encoding,woman,027,"[0, 2]",black,"['00C', '25R']","['U', 'C']",,"{'muct_id': '601', 'lighting': 'y', 'race_guess': 'b', 'gender_guess': 'w', 'quality': '3', 'quality_eyes': '3', 'quality_mouth': '3', 'quality_ears': '3', 'quality_hair': '3', 'quality_neck': '3', 'facial_hair': '0.0', 'notes': 'mouth', 'race_common': 'black', 'gender_common': 'woman'}","{'muct_id': '37', 'lighting': 'q', 'race_guess': 'b', 'gender_guess': 'w', 'quality': '3', 'quality_eyes': '3', 'quality_mouth': '3', 'quality_ears': '3', 'quality_hair': '3', 'quality_neck': '3', 'facial_hair': '0.0', 'notes': 'earrings', 'race_common': 'black', 'gender_common': 'woman'}",,,,,,,,,,,,,,,,,,,,,,,,,,,,,,,,,,,,,,,,,,,,,,626b33cea0ce07a0486c19f1,626b317e2da99f76c814befb,590884b2ac756c0001ecb837,,,,,,,,,,,,,,,,,,,,,0.8087907433509827,"[0.7652570605278015, 0.8267828822135925]",,,,
11129,626b34da1a371c538416a834,Chrome,1.0,main_task,1.0,1.0,chris,"4/28/2022, 8:44:10 PM",cqbz7lh19r6krarwzy7n,0.0-74.0,pilot_prolific_afc2,37,man,132,0.0,black,00C,C,2661.0,"['../stimuli/version1_gray_lm/id132_00C_C.png', '../stimuli/version1_gray_lm/id040_50R_D.png', '../stimuli/version1_gray_lm/id040_25L_U.png']",257070.0,0.0,83.0,36.0,encoding,man,040,"[1, 2]",black,"['50R', '25L']","['D', 'U']",,"{'muct_id': '450', 'lighting': 'w', 'race_guess': 'b', 'gender_guess': 'm', 'quality': '3', 'quality_eyes': '3', 'quality_mouth': '3', 'quality_ears': '3', 'quality_hair': '3', 'quality_neck': '3', 'facial_hair': '4.0', 'notes': 'mouth', 'race_common': 'black', 'gender_common': 'man'}","{'muct_id': '55', 'lighting': 'r', 'race_guess': 'b', 'gender_guess': 'm', 'quality': '3', 'quality_eyes': '3', 'quality_mouth': '3', 'quality_ears': '3', 'quality_hair': '3', 'quality_neck': '3', 'facial_hair': '3.0', 'notes': 'beard', 'race_common': 'black', 'gender_common': 'man'}",,,,,,,,,,,,,,,,,,,,,,,,,,,,,,,,,,,,,,,,,,,,,,626b33cea0ce07a0486c19f1,626b317e2da99f76c814befb,590884b2ac756c0001ecb837,,,,,,,,,,,,,,,,,,,,,0.8432913422584534,"[0.8278834223747253, 0.832576334476471]",,,,
11130,626b34dc1a371c538416a835,Chrome,2.0,main_task,0.0,1.0,chris,"4/28/2022, 8:44:12 PM",cqbz7lh19r6krarwzy7n,0.0-76.0,pilot_prolific_afc2,39,woman,152,0.0,white,50L,C,1795.0,"['../stimuli/version1_gray_lm/id152_50L_C.png', '../stimuli/version1_gray_lm/id084_50R_D.png', '../stimuli/version1_gray_lm/id084_00C_U.png']",259288.0,0.0,85.0,37.0,encoding,woman,084,"[1, 2]",white,"['50R', '00C']","['D', 'U']",,"{'muct_id': '446', 'lighting': 'w', 'race_guess': 'w', 'gender_guess': 'w', 'quality': '3', 'quality_eyes': '3', 'quality_mouth': '3', 'quality_ears': '3', 'quality_hair': '3', 'quality_neck': '3', 'facial_hair': '0.0', 'notes': None, 'race_common': 'white', 'gender_common': 'woman'}","{'muct_id': '248', 'lighting': 'u', 'race_guess': 'w', 'gender_guess': 'w', 'quality': '3', 'quality_eyes': '3', 'quality_mouth': '3', 'quality_ears': '3', 'quality_hair': '3', 'quality_neck': '3', 'facial_hair': '0.0', 'notes': None, 'race_common': 'white', 'gender_common': 'woman'}",,,,,,,,,,,,,,,,,,,,,,,,,,,,,,,,,,,,,,,,,,,,,,626b33cea0ce07a0486c19f1,626b317e2da99f76c814befb,590884b2ac756c0001ecb837,,,,,,,,,,,,,,,,,,,,,0.8244626522064209,"[0.7998800277709961, 0.8767359852790833]",,,,
11131,626b34df1a371c538416a836,Chrome,3.0,main_task,1.0,3.0,chris,"4/28/2022, 8:44:15 PM",cqbz7lh19r6krarwzy7n,0.0-78.0,pilot_prolific_afc2,40,man,137,2.0,black,00C,D,2745.0,"['../stimuli/version1_gray_lm/id030_50L_U.png', '../stimuli/version1_gray_lm/id030_25R_C.png', '../stimuli/version1_gray_lm/id137_00C_D.png']",262540.0,0.0,87.0,38.0,encoding,man,030,"[0, 1]",black,"['50L', '25R']","['U', 'C']",,"{'muct_id': '617', 'lighting': 'y', 'race_guess': 'b', 'gender_guess': 'w', 'quality': '3', 'quality_eyes': '3', 'quality_mouth': '3', 'quality_ears': '3', 'quality_hair': '3', 'quality_neck': '3', 'facial_hair': '0.0', 'notes': 'mouth', 'race_common': 'black', 'gender_common': 'man'}","{'muct_id': '41', 'lighting': 'r', 'race_guess': 'b', 'gender_guess': 'm', 'quality': '3', 'quality_eyes': '3', 'quality_mouth': '3', 'quality_ears': '3', 'quality_hair': '3', 'quality_neck': '3', 'facial_hair': '0.0', 'notes': None, 'race_common': 'black', 'gender_common': 'man'}",,,,,,,,,,,,,,,,,,,,,,,,,,,,,,,,,,,,,,,,,,,,,,626b33cea0ce07a0486c19f1,626b317e2da99f76c814befb,590884b2ac756c0001ecb837,,,,,,,,,,,,,,,,,,,,,0.8765964508056641,"[0.8023080229759216, 0.8097817301750183]",,,,
11132,626b34e31a371c538416a837,Chrome,2.0,main_task,0.0,3.0,chris,"4/28/2022, 8:44:18 PM",cqbz7lh19r6krarwzy7n,0.0-80.0,pilot_prolific_afc2,39,woman,136,2.0,black,00C,C,2685.0,"['../stimuli/version1_gray_lm/id077_25R_D.png', '../stimuli/version1_gray_lm/id077_50L_U.png', '../stimuli/version1_gray_lm/id136_00C_C.png']",265741.0,0.0,89.0,39.0,encoding,woman,077,"[0, 1]",black,"['25R', '50L']","['D', 'U']",,"{'muct_id': '616', 'lighting': 'y', 'race_guess': 'b', 'gender_guess': 'w', 'quality': '3', 'quality_eyes': '3', 'quality_mouth': '3', 'quality_ears': '3', 'quality_hair': '3', 'quality_neck': '3', 'facial_hair': '0.0', 'notes': 'earrings', 'race_common': 'black', 'gender_common': 'woman'}","{'muct_id': '235', 'lighting': 'u', 'race_guess': 'b', 'gender_guess': 'w', 'quality': '3', 'quality_eyes': '3', 'quality_mouth': '3', 'quality_ears': '3', 'quality_hair': '3', 'quality_neck': '3', 'facial_hair': '0.0', 'notes': 'earrings', 'race_common': 'black', 'gender_common': 'woman'}",,,,,,,,,,,,,,,,,,,,,,,,,,,,,,,,,,,,,,,,,,,,,,626b33cea0ce07a0486c19f1,626b317e2da99f76c814befb,590884b2ac756c0001ecb837,,,,,,,,,,,,,,,,,,,,,0.8723787069320679,"[0.8321653008460999, 0.8248081207275391]",,,,
11133,626b34e61a371c538416a838,Chrome,2.0,main_task,1.0,2.0,chris,"4/28/2022, 8:44:22 PM",cqbz7lh19r6krarwzy7n,0.0-82.0,pilot_prolific_afc2,39,woman,151,1.0,white,25R,D,3235.0,"['../stimuli/version1_gray_lm/id042_00C_C.png', '../stimuli/version1_gray_lm/id151_25R_D.png', '../stimuli/version1_gray_lm/id042_25L_U.png']",269566.0,0.0,91.0,40.0,encoding,woman,042,"[0, 2]",white,"['00C', '25L']","['C', 'U']",,"{'muct_id': '444', 'lighting': 'w', 'race_guess': 'w', 'gender_guess': 'w', 'quality': '3', 'quality_eyes': '3', 'quality_mouth': '3', 'quality_ears': '3', 'quality_hair': '3', 'quality_neck': '3', 'facial_hair': '0.0', 'notes': None, 'race_common': 'white', 'gender_common': 'woman'}","{'muct_id': '57', 'lighting': 'r', 'race_guess': 'b', 'gender_guess': 'w', 'quality': '3', 'quality_eyes': '3', 'quality_mouth': '3', 'quality_ears': '3', 'quality_hair': '3', 'quality_neck': '3', 'facial_hair': '0.0', 'notes': 'earrings', 'race_common': 'white', 'gender_common': 'woman'}",,,,,,,,,,,,,,,,,,,,,,,,,,,,,,,,,,,,,,,,,,,,,,626b33cea0ce07a0486c19f1,626b317e2da99f76c814befb,590884b2ac756c0001ecb837,,,,,,,,,,,,,,,,,,,,,0.828726053237915,"[0.8433798551559448, 0.7688271999359131]",,,,
11134,626b34f21a371c538416a839,Chrome,,main_task,,,chris,"4/28/2022, 8:44:34 PM",,0.0-84.0,pilot_prolific_afc2,,,,,,,,11339.5,"<p style='font-size: 150%'><b>You have finished Part 1!</b></p><p>On this section, you averaged <b>70% accuracy</b>.</p><p>At this rate, you won't earn any bonus above the base rate.<br>Take your time on the next parts to make sure you can make a bonus!</p><p>Click 'Next' to continue to Part 2.</p>",281403.0,,93.0,,bonus_update,,,,,,,,,,0,encoding,0.0,,,,,,,,,,,,,,,,,,,,,,,,,,,,,,,,,,,,,,,,,,,626b33cea0ce07a0486c19f1,626b317e2da99f76c814befb,590884b2ac756c0001ecb837,,,,,,,,,,,,,,,,,,,,,,,,,,
11135,626b35171a371c538416a83a,Chrome,3.0,main_task,0.0,2.0,chris,"4/28/2022, 8:45:11 PM",cqbz7lh19r6krarwzy7n,0.0-86.0-0.0,pilot_prolific_afc2,40,,,1321.0,,,,1764.0,"['../stimuli/objectome/1303.jpeg', '../stimuli/objectome/1321.jpeg', '../stimuli/objectome/1302.jpeg']",318674.0,0.0,95.0,1.0,filler,,,,,,,,,,,,,chairs,_004,chairs,_008,within,"{'1': None, '2': None, '3': None}",chairs,"[1303, 1302]",_004,V3,,,,,,,,,,,,,,,,,,,,,,,,,,,,,,,,,626b33cea0ce07a0486c19f1,626b317e2da99f76c814befb,590884b2ac756c0001ecb837,,,,,,,,,,,,,,,,,,,,,,,,,,
11136,626b351b1a371c538416a83b,Chrome,3.0,main_task,0.0,2.0,chris,"4/28/2022, 8:45:15 PM",cqbz7lh19r6krarwzy7n,0.0-86.1-0.1,pilot_prolific_afc2,40,,,1321.0,,,,2262.0,"['../stimuli/objectome/1303.jpeg', '../stimuli/objectome/1321.jpeg', '../stimuli/objectome/1302.jpeg']",322232.0,0.0,97.0,2.0,filler,,,,,,,,,,,,,chairs,_004,chairs,_008,within,"{'1': None, '2': None, '3': None}",chairs,"[1303, 1302]",_004,V3,,,,,,,,,,,,,,,,,,,,,,,,,,,,,,,,,626b33cea0ce07a0486c19f1,626b317e2da99f76c814befb,590884b2ac756c0001ecb837,,,,,,,,,,,,,,,,,,,,,,,,,,
11137,626b35211a371c538416a83c,Chrome,1.0,main_task,0.0,2.0,chris,"4/28/2022, 8:45:21 PM",cqbz7lh19r6krarwzy7n,0.0-86.2-0.2,pilot_prolific_afc2,37,,,1321.0,,,,3813.0,"['../stimuli/objectome/1303.jpeg', '../stimuli/objectome/1321.jpeg', '../stimuli/objectome/1302.jpeg']",327915.0,0.0,99.0,3.0,filler,,,,,,,,,,,,,chairs,_004,chairs,_008,within,"{'1': None, '2': None, '3': None}",chairs,"[1303, 1302]",_004,V3,,,,,,,,,,,,,,,,,,,,,,,,,,,,,,,,,626b33cea0ce07a0486c19f1,626b317e2da99f76c814befb,590884b2ac756c0001ecb837,,,,,,,,,,,,,,,,,,,,,,,,,,
11138,626b35251a371c538416a83d,Chrome,1.0,main_task,0.0,2.0,chris,"4/28/2022, 8:45:25 PM",cqbz7lh19r6krarwzy7n,0.0-86.3-0.3,pilot_prolific_afc2,37,,,1321.0,,,,2583.0,"['../stimuli/objectome/1303.jpeg', '../stimuli/objectome/1321.jpeg', '../stimuli/objectome/1302.jpeg']",331871.0,0.0,101.0,4.0,filler,,,,,,,,,,,,,chairs,_004,chairs,_008,within,"{'1': None, '2': None, '3': None}",chairs,"[1303, 1302]",_004,V3,,,,,,,,,,,,,,,,,,,,,,,,,,,,,,,,,626b33cea0ce07a0486c19f1,626b317e2da99f76c814befb,590884b2ac756c0001ecb837,,,,,,,,,,,,,,,,,,,,,,,,,,
11139,626b35261a371c538416a83e,Chrome,2.0,main_task,1.0,2.0,chris,"4/28/2022, 8:45:26 PM",cqbz7lh19r6krarwzy7n,0.0-86.4-0.4,pilot_prolific_afc2,39,,,1321.0,,,,405.0,"['../stimuli/objectome/1303.jpeg', '../stimuli/objectome/1321.jpeg', '../stimuli/objectome/1302.jpeg']",333673.0,0.0,103.0,5.0,filler,,,,,,,,,,,,,chairs,_008,chairs,_008,within,"{'1': None, '2': None, '3': None}",chairs,"[1303, 1302]",_004,V3,,,,,,,,,,,,,,,,,,,,,,,,,,,,,,,,,626b33cea0ce07a0486c19f1,626b317e2da99f76c814befb,590884b2ac756c0001ecb837,,,,,,,,,,,,,,,,,,,,,,,,,,
11140,626b352a1a371c538416a83f,Chrome,2.0,main_task,1.0,2.0,chris,"4/28/2022, 8:45:29 PM",cqbz7lh19r6krarwzy7n,0.0-87.0-0.0,pilot_prolific_afc2,39,,,1373.0,,,,2070.0,"['../stimuli/objectome/1408.jpeg', '../stimuli/objectome/1373.jpeg', '../stimuli/objectome/1412.jpeg']",336794.0,0.0,105.0,6.0,filler,,,,,,,,,,,,,chairs,_010,chairs,_010,within,"{'1': None, '2': None, '3': None}",chairs,"[1408, 1412]",_011,V3,,,,,,,,,,,,,,,,,,,,,,,,,,,,,,,,,626b33cea0ce07a0486c19f1,626b317e2da99f76c814befb,590884b2ac756c0001ecb837,,,,,,,,,,,,,,,,,,,,,,,,,,
11141,626b352c1a371c538416a840,Chrome,2.0,main_task,1.0,2.0,chris,"4/28/2022, 8:45:32 PM",cqbz7lh19r6krarwzy7n,0.0-88.0-0.0,pilot_prolific_afc2,39,,,222.0,,,,1742.0,"['../stimuli/objectome/164.jpeg', '../stimuli/objectome/222.jpeg', '../stimuli/objectome/162.jpeg']",339277.0,0.0,107.0,7.0,filler,,,,,,,,,,,,,chairs,_031,chairs,_031,within,"{'1': None, '2': None, '3': None}",chairs,"[164, 162]",_004,V0,,,,,,,,,,,,,,,,,,,,,,,,,,,,,,,,,626b33cea0ce07a0486c19f1,626b317e2da99f76c814befb,590884b2ac756c0001ecb837,,,,,,,,,,,,,,,,,,,,,,,,,,
11142,626b35341a371c538416a841,Chrome,3.0,main_task,1.0,3.0,chris,"4/28/2022, 8:45:40 PM",cqbz7lh19r6krarwzy7n,0.0-90.0,pilot_prolific_afc2,40,,,2087.0,,,,3080.0,"['../stimuli/objectome/1238.jpeg', '../stimuli/objectome/1239.jpeg', '../stimuli/objectome/2087.jpeg']",347614.0,0.0,110.0,8.0,filler,,,,,,,,,,,,,animals,bear,animals,bear,within,"{'1': None, '2': None, '3': None}",animals,"[1238, 1239]",TURTLE_L,V3,,,,,,,,,,,,,,,,,,,,,,,,,,,,,,,,,626b33cea0ce07a0486c19f1,626b317e2da99f76c814befb,590884b2ac756c0001ecb837,,,,,,,,,,,,,,,,,,,,,,,,,,
11143,626b35371a371c538416a842,Chrome,3.0,main_task,1.0,3.0,chris,"4/28/2022, 8:45:43 PM",cqbz7lh19r6krarwzy7n,0.0-92.0,pilot_prolific_afc2,40,,,1306.0,,,,1521.0,"['../stimuli/objectome/1356.jpeg', '../stimuli/objectome/1346.jpeg', '../stimuli/objectome/1306.jpeg']",350013.0,0.0,112.0,9.0,filler,,,,,,,,,,,,,chairs,_004,chairs,_004,within,"{'1': None, '2': None, '3': None}",chairs,"[1356, 1346]",_008,V3,,,,,,,,,,,,,,,,,,,,,,,,,,,,,,,,,626b33cea0ce07a0486c19f1,626b317e2da99f76c814befb,590884b2ac756c0001ecb837,,,,,,,,,,,,,,,,,,,,,,,,,,
11144,626b353a1a371c538416a843,Chrome,2.0,main_task,1.0,2.0,chris,"4/28/2022, 8:45:46 PM",cqbz7lh19r6krarwzy7n,0.0-94.0,pilot_prolific_afc2,39,,,2999.0,,,,2398.0,"['../stimuli/objectome/1503.jpeg', '../stimuli/objectome/2999.jpeg', '../stimuli/objectome/1481.jpeg']",353128.0,0.0,114.0,10.0,filler,,,,,,,,,,,,,planes,rdbarren,planes,rdbarren,within,"{'1': None, '2': None, '3': None}",planes,"[1503, 1481]",_01_Airliner_2jetEngines,V3,,,,,,,,,,,,,,,,,,,,,,,,,,,,,,,,,626b33cea0ce07a0486c19f1,626b317e2da99f76c814befb,590884b2ac756c0001ecb837,,,,,,,,,,,,,,,,,,,,,,,,,,
11145,626b353c1a371c538416a844,Chrome,2.0,main_task,1.0,2.0,chris,"4/28/2022, 8:45:48 PM",cqbz7lh19r6krarwzy7n,0.0-96.0,pilot_prolific_afc2,39,,,1216.0,,,,1782.0,"['../stimuli/objectome/981.jpeg', '../stimuli/objectome/1216.jpeg', '../stimuli/objectome/960.jpeg']",355379.0,0.0,116.0,11.0,filler,,,,,,,,,,,,,animals,TURTLE_L,animals,TURTLE_L,within,"{'1': None, '2': None, '3': None}",animals,"[981, 960]",LIONESS,V3,,,,,,,,,,,,,,,,,,,,,,,,,,,,,,,,,626b33cea0ce07a0486c19f1,626b317e2da99f76c814befb,590884b2ac756c0001ecb837,,,,,,,,,,,,,,,,,,,,,,,,,,
11146,626b353f1a371c538416a845,Chrome,3.0,main_task,1.0,3.0,chris,"4/28/2022, 8:45:51 PM",cqbz7lh19r6krarwzy7n,0.0-98.0,pilot_prolific_afc2,40,,,2980.0,,,,1841.0,"['../stimuli/objectome/1614.jpeg', '../stimuli/objectome/1610.jpeg', '../stimuli/objectome/2980.jpeg']",357857.0,0.0,118.0,12.0,filler,,,,,,,,,,,,,planes,rdbarren,planes,rdbarren,within,"{'1': None, '2': None, '3': None}",planes,"[1614, 1610]",_05_future,V3,,,,,,,,,,,,,,,,,,,,,,,,,,,,,,,,,626b33cea0ce07a0486c19f1,626b317e2da99f76c814befb,590884b2ac756c0001ecb837,,,,,,,,,,,,,,,,,,,,,,,,,,
11147,626b35411a371c538416a846,Chrome,3.0,main_task,1.0,3.0,chris,"4/28/2022, 8:45:53 PM",cqbz7lh19r6krarwzy7n,0.0-100.0,pilot_prolific_afc2,40,,,1297.0,,,,1684.0,"['../stimuli/objectome/1584.jpeg', '../stimuli/objectome/1569.jpeg', '../stimuli/objectome/1297.jpeg']",360209.0,0.0,120.0,13.0,filler,,,,,,,,,,,,,chairs,_004,chairs,_004,within,"{'1': None, '2': None, '3': None}",chairs,"[1584, 1569]",_033,V3,,,,,,,,,,,,,,,,,,,,,,,,,,,,,,,,,626b33cea0ce07a0486c19f1,626b317e2da99f76c814befb,590884b2ac756c0001ecb837,,,,,,,,,,,,,,,,,,,,,,,,,,
11148,626b35441a371c538416a847,Chrome,3.0,main_task,1.0,3.0,chris,"4/28/2022, 8:45:56 PM",cqbz7lh19r6krarwzy7n,0.0-102.0,pilot_prolific_afc2,40,,,1513.0,,,,2422.0,"['../stimuli/objectome/3024.jpeg', '../stimuli/objectome/3037.jpeg', '../stimuli/objectome/1513.jpeg']",363033.0,0.0,122.0,14.0,filler,,,,,,,,,,,,,planes,_01_Airliner_2jetEngines,planes,_01_Airliner_2jetEngines,within,"{'1': None, '2': None, '3': None}",planes,"[3024, 3037]",sopwith,V3,,,,,,,,,,,,,,,,,,,,,,,,,,,,,,,,,626b33cea0ce07a0486c19f1,626b317e2da99f76c814befb,590884b2ac756c0001ecb837,,,,,,,,,,,,,,,,,,,,,,,,,,
11149,626b35461a371c538416a848,Chrome,3.0,main_task,1.0,3.0,chris,"4/28/2022, 8:45:58 PM",cqbz7lh19r6krarwzy7n,0.0-104.0,pilot_prolific_afc2,40,,,1423.0,,,,1350.0,"['../stimuli/objectome/1316.jpeg', '../stimuli/objectome/1302.jpeg', '../stimuli/objectome/1423.jpeg']",364845.0,0.0,124.0,15.0,filler,,,,,,,,,,,,,chairs,_011,chairs,_011,within,"{'1': None, '2': None, '3': None}",chairs,"[1316, 1302]",_004,V3,,,,,,,,,,,,,,,,,,,,,,,,,,,,,,,,,626b33cea0ce07a0486c19f1,626b317e2da99f76c814befb,590884b2ac756c0001ecb837,,,,,,,,,,,,,,,,,,,,,,,,,,
11150,626b35481a371c538416a849,Chrome,2.0,main_task,1.0,2.0,chris,"4/28/2022, 8:46:00 PM",cqbz7lh19r6krarwzy7n,0.0-106.0,pilot_prolific_afc2,39,,,146.0,,,,1540.0,"['../stimuli/objectome/62.jpeg', '../stimuli/objectome/146.jpeg', '../stimuli/objectome/61.jpeg']",367041.0,0.0,126.0,16.0,filler,,,,,,,,,,,,,animals,TURTLE_L,animals,TURTLE_L,within,"{'1': None, '2': None, '3': None}",animals,"[62, 61]",ELEPHANT_M,V0,,,,,,,,,,,,,,,,,,,,,,,,,,,,,,,,,626b33cea0ce07a0486c19f1,626b317e2da99f76c814befb,590884b2ac756c0001ecb837,,,,,,,,,,,,,,,,,,,,,,,,,,
11151,626b354b1a371c538416a84a,Chrome,2.0,main_task,1.0,2.0,chris,"4/28/2022, 8:46:02 PM",cqbz7lh19r6krarwzy7n,0.0-108.0,pilot_prolific_afc2,39,,,2431.0,,,,2167.0,"['../stimuli/objectome/1509.jpeg', '../stimuli/objectome/2431.jpeg', '../stimuli/objectome/1487.jpeg']",369820.0,0.0,128.0,17.0,filler,,,,,,,,,,,,,planes,f16,planes,f16,within,"{'1': None, '2': None, '3': None}",planes,"[1509, 1487]",_01_Airliner_2jetEngines,V3,,,,,,,,,,,,,,,,,,,,,,,,,,,,,,,,,626b33cea0ce07a0486c19f1,626b317e2da99f76c814befb,590884b2ac756c0001ecb837,,,,,,,,,,,,,,,,,,,,,,,,,,
11152,626b354d1a371c538416a84b,Chrome,2.0,main_task,1.0,2.0,chris,"4/28/2022, 8:46:04 PM",cqbz7lh19r6krarwzy7n,0.0-110.0,pilot_prolific_afc2,39,,,1224.0,,,,1419.0,"['../stimuli/objectome/2111.jpeg', '../stimuli/objectome/1224.jpeg', '../stimuli/objectome/2095.jpeg']",371787.0,0.0,130.0,18.0,filler,,,,,,,,,,,,,animals,TURTLE_L,animals,TURTLE_L,within,"{'1': None, '2': None, '3': None}",animals,"[2111, 2095]",bear,V3,,,,,,,,,,,,,,,,,,,,,,,,,,,,,,,,,626b33cea0ce07a0486c19f1,626b317e2da99f76c814befb,590884b2ac756c0001ecb837,,,,,,,,,,,,,,,,,,,,,,,,,,
11153,626b354f1a371c538416a84c,Chrome,1.0,main_task,1.0,1.0,chris,"4/28/2022, 8:46:07 PM",cqbz7lh19r6krarwzy7n,0.0-112.0,pilot_prolific_afc2,37,,,1842.0,,,,1932.0,"['../stimuli/objectome/1842.jpeg', '../stimuli/objectome/2985.jpeg', '../stimuli/objectome/2987.jpeg']",374323.0,0.0,132.0,19.0,filler,,,,,,,,,,,,,planes,_19_flyingBoat,planes,_19_flyingBoat,within,"{'1': None, '2': None, '3': None}",planes,"[2985, 2987]",rdbarren,V3,,,,,,,,,,,,,,,,,,,,,,,,,,,,,,,,,626b33cea0ce07a0486c19f1,626b317e2da99f76c814befb,590884b2ac756c0001ecb837,,,,,,,,,,,,,,,,,,,,,,,,,,
11154,626b35511a371c538416a84d,Chrome,2.0,main_task,1.0,2.0,chris,"4/28/2022, 8:46:09 PM",cqbz7lh19r6krarwzy7n,0.0-114.0,pilot_prolific_afc2,39,,,1262.0,,,,1573.0,"['../stimuli/objectome/1470.jpeg', '../stimuli/objectome/1262.jpeg', '../stimuli/objectome/1440.jpeg']",376449.0,0.0,134.0,20.0,filler,,,,,,,,,,,,,chairs,_001,chairs,_001,within,"{'1': None, '2': None, '3': None}",chairs,"[1470, 1440]",_014,V3,,,,,,,,,,,,,,,,,,,,,,,,,,,,,,,,,626b33cea0ce07a0486c19f1,626b317e2da99f76c814befb,590884b2ac756c0001ecb837,,,,,,,,,,,,,,,,,,,,,,,,,,
11155,626b35531a371c538416a84e,Chrome,3.0,main_task,1.0,3.0,chris,"4/28/2022, 8:46:11 PM",cqbz7lh19r6krarwzy7n,0.0-116.0,pilot_prolific_afc2,40,,,951.0,,,,1508.0,"['../stimuli/objectome/2110.jpeg', '../stimuli/objectome/2100.jpeg', '../stimuli/objectome/951.jpeg']",378462.0,0.0,136.0,21.0,filler,,,,,,,,,,,,,animals,GORILLA,animals,GORILLA,within,"{'1': None, '2': None, '3': None}",animals,"[2110, 2100]",bear,V3,,,,,,,,,,,,,,,,,,,,,,,,,,,,,,,,,626b33cea0ce07a0486c19f1,626b317e2da99f76c814befb,590884b2ac756c0001ecb837,,,,,,,,,,,,,,,,,,,,,,,,,,
11156,626b35551a371c538416a84f,Chrome,3.0,main_task,1.0,3.0,chris,"4/28/2022, 8:46:13 PM",cqbz7lh19r6krarwzy7n,0.0-118.0,pilot_prolific_afc2,40,,,2081.0,,,,1460.0,"['../stimuli/objectome/906.jpeg', '../stimuli/objectome/886.jpeg', '../stimuli/objectome/2081.jpeg']",380593.0,0.0,138.0,22.0,filler,,,,,,,,,,,,,animals,bear,animals,bear,within,"{'1': None, '2': None, '3': None}",animals,"[906, 886]",ELEPHANT_M,V3,,,,,,,,,,,,,,,,,,,,,,,,,,,,,,,,,626b33cea0ce07a0486c19f1,626b317e2da99f76c814befb,590884b2ac756c0001ecb837,,,,,,,,,,,,,,,,,,,,,,,,,,
11157,626b35591a371c538416a850,Chrome,1.0,main_task,0.0,2.0,chris,"4/28/2022, 8:46:17 PM",cqbz7lh19r6krarwzy7n,0.0-120.0,pilot_prolific_afc2,37,,,2846.0,,,,2919.0,"['../stimuli/objectome/1633.jpeg', '../stimuli/objectome/2846.jpeg', '../stimuli/objectome/1634.jpeg']",384126.0,0.0,140.0,23.0,filler,,,,,,,,,,,,,planes,_05_future,planes,mig29,within,"{'1': None, '2': None, '3': None}",planes,"[1633, 1634]",_05_future,V3,,,,,,,,,,,,,,,,,,,,,,,,,,,,,,,,,626b33cea0ce07a0486c19f1,626b317e2da99f76c814befb,590884b2ac756c0001ecb837,,,,,,,,,,,,,,,,,,,,,,,,,,
11158,626b355b1a371c538416a851,Chrome,2.0,main_task,1.0,2.0,chris,"4/28/2022, 8:46:19 PM",cqbz7lh19r6krarwzy7n,0.0-122.0,pilot_prolific_afc2,39,,,1236.0,,,,1169.0,"['../stimuli/objectome/913.jpeg', '../stimuli/objectome/1236.jpeg', '../stimuli/objectome/883.jpeg']",385864.0,0.0,142.0,24.0,filler,,,,,,,,,,,,,animals,TURTLE_L,animals,TURTLE_L,within,"{'1': None, '2': None, '3': None}",animals,"[913, 883]",ELEPHANT_M,V3,,,,,,,,,,,,,,,,,,,,,,,,,,,,,,,,,626b33cea0ce07a0486c19f1,626b317e2da99f76c814befb,590884b2ac756c0001ecb837,,,,,,,,,,,,,,,,,,,,,,,,,,
11159,626b35621a371c538416a852,Chrome,,main_task,,,chris,"4/28/2022, 8:46:25 PM",,0.0-124.0,pilot_prolific_afc2,,,,,,,,6363.100000023842,"<p style='font-size: 150%'><b>You have finished Part 2!</b></p><p>Nice job! On this section, you averaged <b>79% accuracy</b>.</p><p>You're on track to earn a good bonus. Keep up the good work!</p><p>Click 'Next' to continue to Part 3.</p>",392795.0,,144.0,,bonus_update,,,,,,,,,,0,filler,1.3583333333333334,,,,,,,,,,,,,,,,,,,,,,,,,,,,,,,,,,,,,,,,,,,626b33cea0ce07a0486c19f1,626b317e2da99f76c814befb,590884b2ac756c0001ecb837,,,,,,,,,,,,,,,,,,,,,,,,,,
11160,626b35be1a371c538416a853,Chrome,,main_task,0.0,1.0,chris,"4/28/2022, 8:47:58 PM",cqbz7lh19r6krarwzy7n,0.0-126.0-0.0,pilot_prolific_afc2,,,,,,,,2822.5,,485096.0,0.0,146.0,1.0,retrieval_practice,,,,,,,,,,,,,,,,,,,,,,,,,,,,,,,,0,,,,,,,,,,,,,,,,,,,,,,,626b33cea0ce07a0486c19f1,626b317e2da99f76c814befb,590884b2ac756c0001ecb837,"{'muct_id': '43', 'lighting': 'q', 'race_guess': 'w', 'gender_guess': 'm', 'quality': '3', 'quality_eyes': '3', 'quality_mouth': '3', 'quality_ears': '3', 'quality_hair': '3', 'quality_neck': '3', 'facial_hair': '0.0', 'notes': None, 'race_common': 'white', 'gender_common': 'man'}","{'muct_id': '419', 'lighting': 'x', 'race_guess': 'b', 'gender_guess': 'm', 'quality': '3', 'quality_eyes': '3', 'quality_mouth': '3', 'quality_ears': '3', 'quality_hair': '3', 'quality_neck': '3', 'facial_hair': '1.0', 'notes': None, 'race_common': 'black', 'gender_common': 'man'}",man,032,1.0,white,25R,D,090,oddity,man,118,0.0,15.0,25L,D,black,25L,D,"['../stimuli/version1_gray_lm/id118_25L_D.png', '../stimuli/version1_gray_lm/id032_25R_D.png']",,,0.8583691120147705,0.8424684405326843,00C,0.0
11161,626b35c41a371c538416a854,Chrome,,main_task,0.0,1.0,chris,"4/28/2022, 8:48:04 PM",cqbz7lh19r6krarwzy7n,0.0-126.1-0.1,pilot_prolific_afc2,,,,,,,,2412.5,,491448.0,0.0,148.0,2.0,retrieval_practice,,,,,,,,,,,,,,,,,,,,,,,,,,,,,,,,100,,,,,,,,,,,,,,,,,,,,,,,626b33cea0ce07a0486c19f1,626b317e2da99f76c814befb,590884b2ac756c0001ecb837,"{'muct_id': '43', 'lighting': 'q', 'race_guess': 'w', 'gender_guess': 'm', 'quality': '3', 'quality_eyes': '3', 'quality_mouth': '3', 'quality_ears': '3', 'quality_hair': '3', 'quality_neck': '3', 'facial_hair': '0.0', 'notes': None, 'race_common': 'white', 'gender_common': 'man'}","{'muct_id': '419', 'lighting': 'x', 'race_guess': 'b', 'gender_guess': 'm', 'quality': '3', 'quality_eyes': '3', 'quality_mouth': '3', 'quality_ears': '3', 'quality_hair': '3', 'quality_neck': '3', 'facial_hair': '1.0', 'notes': None, 'race_common': 'black', 'gender_common': 'man'}",man,032,1.0,white,25R,D,090,oddity,man,118,0.0,15.0,25L,D,black,25L,D,"['../stimuli/version1_gray_lm/id118_25L_D.png', '../stimuli/version1_gray_lm/id032_25R_D.png']",,,0.8583691120147705,0.8424684405326843,00C,0.0
11162,626b35c81a371c538416a855,Chrome,,main_task,0.0,1.0,chris,"4/28/2022, 8:48:08 PM",cqbz7lh19r6krarwzy7n,0.0-126.2-0.2,pilot_prolific_afc2,,,,,,,,2831.600000023842,,495303.0,0.0,150.0,3.0,retrieval_practice,,,,,,,,,,,,,,,,,,,,,,,,,,,,,,,,11,,,,,,,,,,,,,,,,,,,,,,,626b33cea0ce07a0486c19f1,626b317e2da99f76c814befb,590884b2ac756c0001ecb837,"{'muct_id': '43', 'lighting': 'q', 'race_guess': 'w', 'gender_guess': 'm', 'quality': '3', 'quality_eyes': '3', 'quality_mouth': '3', 'quality_ears': '3', 'quality_hair': '3', 'quality_neck': '3', 'facial_hair': '0.0', 'notes': None, 'race_common': 'white', 'gender_common': 'man'}","{'muct_id': '419', 'lighting': 'x', 'race_guess': 'b', 'gender_guess': 'm', 'quality': '3', 'quality_eyes': '3', 'quality_mouth': '3', 'quality_ears': '3', 'quality_hair': '3', 'quality_neck': '3', 'facial_hair': '1.0', 'notes': None, 'race_common': 'black', 'gender_common': 'man'}",man,032,1.0,white,25R,D,090,oddity,man,118,0.0,15.0,25L,D,black,25L,D,"['../stimuli/version1_gray_lm/id118_25L_D.png', '../stimuli/version1_gray_lm/id032_25R_D.png']",,,0.8583691120147705,0.8424684405326843,00C,0.0
11163,626b35ce1a371c538416a856,Chrome,,main_task,0.0,1.0,chris,"4/28/2022, 8:48:14 PM",cqbz7lh19r6krarwzy7n,0.0-126.3-0.3,pilot_prolific_afc2,,,,,,,,3675.699999988079,,501351.0,0.0,152.0,4.0,retrieval_practice,,,,,,,,,,,,,,,,,,,,,,,,,,,,,,,,0,,,,,,,,,,,,,,,,,,,,,,,626b33cea0ce07a0486c19f1,626b317e2da99f76c814befb,590884b2ac756c0001ecb837,"{'muct_id': '43', 'lighting': 'q', 'race_guess': 'w', 'gender_guess': 'm', 'quality': '3', 'quality_eyes': '3', 'quality_mouth': '3', 'quality_ears': '3', 'quality_hair': '3', 'quality_neck': '3', 'facial_hair': '0.0', 'notes': None, 'race_common': 'white', 'gender_common': 'man'}","{'muct_id': '419', 'lighting': 'x', 'race_guess': 'b', 'gender_guess': 'm', 'quality': '3', 'quality_eyes': '3', 'quality_mouth': '3', 'quality_ears': '3', 'quality_hair': '3', 'quality_neck': '3', 'facial_hair': '1.0', 'notes': None, 'race_common': 'black', 'gender_common': 'man'}",man,032,1.0,white,25R,D,090,oddity,man,118,0.0,15.0,25L,D,black,25L,D,"['../stimuli/version1_gray_lm/id118_25L_D.png', '../stimuli/version1_gray_lm/id032_25R_D.png']",,,0.8583691120147705,0.8424684405326843,00C,0.0
11164,626b35d71a371c538416a857,Chrome,,main_task,0.0,1.0,chris,"4/28/2022, 8:48:23 PM",cqbz7lh19r6krarwzy7n,0.0-126.4-0.4,pilot_prolific_afc2,,,,,,,,5539.200000047684,,510569.0,0.0,154.0,5.0,retrieval_practice,,,,,,,,,,,,,,,,,,,,,,,,,,,,,,,,50,,,,,,,,,,,,,,,,,,,,,,,626b33cea0ce07a0486c19f1,626b317e2da99f76c814befb,590884b2ac756c0001ecb837,"{'muct_id': '43', 'lighting': 'q', 'race_guess': 'w', 'gender_guess': 'm', 'quality': '3', 'quality_eyes': '3', 'quality_mouth': '3', 'quality_ears': '3', 'quality_hair': '3', 'quality_neck': '3', 'facial_hair': '0.0', 'notes': None, 'race_common': 'white', 'gender_common': 'man'}","{'muct_id': '419', 'lighting': 'x', 'race_guess': 'b', 'gender_guess': 'm', 'quality': '3', 'quality_eyes': '3', 'quality_mouth': '3', 'quality_ears': '3', 'quality_hair': '3', 'quality_neck': '3', 'facial_hair': '1.0', 'notes': None, 'race_common': 'black', 'gender_common': 'man'}",man,032,1.0,white,25R,D,090,oddity,man,118,0.0,15.0,25L,D,black,25L,D,"['../stimuli/version1_gray_lm/id118_25L_D.png', '../stimuli/version1_gray_lm/id032_25R_D.png']",,,0.8583691120147705,0.8424684405326843,00C,0.0
11165,626b35db1a371c538416a858,Chrome,,main_task,0.0,1.0,chris,"4/28/2022, 8:48:27 PM",cqbz7lh19r6krarwzy7n,0.0-126.5-0.5,pilot_prolific_afc2,,,,,,,,2221.599999964237,,514078.0,0.0,156.0,6.0,retrieval_practice,,,,,,,,,,,,,,,,,,,,,,,,,,,,,,,,100,,,,,,,,,,,,,,,,,,,,,,,626b33cea0ce07a0486c19f1,626b317e2da99f76c814befb,590884b2ac756c0001ecb837,"{'muct_id': '43', 'lighting': 'q', 'race_guess': 'w', 'gender_guess': 'm', 'quality': '3', 'quality_eyes': '3', 'quality_mouth': '3', 'quality_ears': '3', 'quality_hair': '3', 'quality_neck': '3', 'facial_hair': '0.0', 'notes': None, 'race_common': 'white', 'gender_common': 'man'}","{'muct_id': '419', 'lighting': 'x', 'race_guess': 'b', 'gender_guess': 'm', 'quality': '3', 'quality_eyes': '3', 'quality_mouth': '3', 'quality_ears': '3', 'quality_hair': '3', 'quality_neck': '3', 'facial_hair': '1.0', 'notes': None, 'race_common': 'black', 'gender_common': 'man'}",man,032,1.0,white,25R,D,090,oddity,man,118,0.0,15.0,25L,D,black,25L,D,"['../stimuli/version1_gray_lm/id118_25L_D.png', '../stimuli/version1_gray_lm/id032_25R_D.png']",,,0.8583691120147705,0.8424684405326843,00C,0.0
11166,626b35df1a371c538416a859,Chrome,,main_task,0.0,1.0,chris,"4/28/2022, 8:48:31 PM",cqbz7lh19r6krarwzy7n,0.0-126.6-0.6,pilot_prolific_afc2,,,,,,,,3436.899999976158,,518698.0,0.0,158.0,7.0,retrieval_practice,,,,,,,,,,,,,,,,,,,,,,,,,,,,,,,,0,,,,,,,,,,,,,,,,,,,,,,,626b33cea0ce07a0486c19f1,626b317e2da99f76c814befb,590884b2ac756c0001ecb837,"{'muct_id': '43', 'lighting': 'q', 'race_guess': 'w', 'gender_guess': 'm', 'quality': '3', 'quality_eyes': '3', 'quality_mouth': '3', 'quality_ears': '3', 'quality_hair': '3', 'quality_neck': '3', 'facial_hair': '0.0', 'notes': None, 'race_common': 'white', 'gender_common': 'man'}","{'muct_id': '419', 'lighting': 'x', 'race_guess': 'b', 'gender_guess': 'm', 'quality': '3', 'quality_eyes': '3', 'quality_mouth': '3', 'quality_ears': '3', 'quality_hair': '3', 'quality_neck': '3', 'facial_hair': '1.0', 'notes': None, 'race_common': 'black', 'gender_common': 'man'}",man,032,1.0,white,25R,D,090,oddity,man,118,0.0,15.0,25L,D,black,25L,D,"['../stimuli/version1_gray_lm/id118_25L_D.png', '../stimuli/version1_gray_lm/id032_25R_D.png']",,,0.8583691120147705,0.8424684405326843,00C,0.0
11167,626b35e41a371c538416a85a,Chrome,,main_task,0.0,1.0,chris,"4/28/2022, 8:48:36 PM",cqbz7lh19r6krarwzy7n,0.0-126.7-0.7,pilot_prolific_afc2,,,,,,,,3287.199999988079,,523668.0,0.0,160.0,8.0,retrieval_practice,,,,,,,,,,,,,,,,,,,,,,,,,,,,,,,,32,,,,,,,,,,,,,,,,,,,,,,,626b33cea0ce07a0486c19f1,626b317e2da99f76c814befb,590884b2ac756c0001ecb837,"{'muct_id': '43', 'lighting': 'q', 'race_guess': 'w', 'gender_guess': 'm', 'quality': '3', 'quality_eyes': '3', 'quality_mouth': '3', 'quality_ears': '3', 'quality_hair': '3', 'quality_neck': '3', 'facial_hair': '0.0', 'notes': None, 'race_common': 'white', 'gender_common': 'man'}","{'muct_id': '419', 'lighting': 'x', 'race_guess': 'b', 'gender_guess': 'm', 'quality': '3', 'quality_eyes': '3', 'quality_mouth': '3', 'quality_ears': '3', 'quality_hair': '3', 'quality_neck': '3', 'facial_hair': '1.0', 'notes': None, 'race_common': 'black', 'gender_common': 'man'}",man,032,1.0,white,25R,D,090,oddity,man,118,0.0,15.0,25L,D,black,25L,D,"['../stimuli/version1_gray_lm/id118_25L_D.png', '../stimuli/version1_gray_lm/id032_25R_D.png']",,,0.8583691120147705,0.8424684405326843,00C,0.0
11168,626b35e81a371c538416a85b,Chrome,,main_task,0.0,1.0,chris,"4/28/2022, 8:48:40 PM",cqbz7lh19r6krarwzy7n,0.0-126.8-0.8,pilot_prolific_afc2,,,,,,,,2370.300000011921,,527289.0,0.0,162.0,9.0,retrieval_practice,,,,,,,,,,,,,,,,,,,,,,,,,,,,,,,,80,,,,,,,,,,,,,,,,,,,,,,,626b33cea0ce07a0486c19f1,626b317e2da99f76c814befb,590884b2ac756c0001ecb837,"{'muct_id': '43', 'lighting': 'q', 'race_guess': 'w', 'gender_guess': 'm', 'quality': '3', 'quality_eyes': '3', 'quality_mouth': '3', 'quality_ears': '3', 'quality_hair': '3', 'quality_neck': '3', 'facial_hair': '0.0', 'notes': None, 'race_common': 'white', 'gender_common': 'man'}","{'muct_id': '419', 'lighting': 'x', 'race_guess': 'b', 'gender_guess': 'm', 'quality': '3', 'quality_eyes': '3', 'quality_mouth': '3', 'quality_ears': '3', 'quality_hair': '3', 'quality_neck': '3', 'facial_hair': '1.0', 'notes': None, 'race_common': 'black', 'gender_common': 'man'}",man,032,1.0,white,25R,D,090,oddity,man,118,0.0,15.0,25L,D,black,25L,D,"['../stimuli/version1_gray_lm/id118_25L_D.png', '../stimuli/version1_gray_lm/id032_25R_D.png']",,,0.8583691120147705,0.8424684405326843,00C,0.0
11169,626b35ed1a371c538416a85c,Chrome,,main_task,0.0,1.0,chris,"4/28/2022, 8:48:45 PM",cqbz7lh19r6krarwzy7n,0.0-126.9-0.9,pilot_prolific_afc2,,,,,,,,4203.399999976158,,532417.0,0.0,164.0,10.0,retrieval_practice,,,,,,,,,,,,,,,,,,,,,,,,,,,,,,,,50,,,,,,,,,,,,,,,,,,,,,,,626b33cea0ce07a0486c19f1,626b317e2da99f76c814befb,590884b2ac756c0001ecb837,"{'muct_id': '43', 'lighting': 'q', 'race_guess': 'w', 'gender_guess': 'm', 'quality': '3', 'quality_eyes': '3', 'quality_mouth': '3', 'quality_ears': '3', 'quality_hair': '3', 'quality_neck': '3', 'facial_hair': '0.0', 'notes': None, 'race_common': 'white', 'gender_common': 'man'}","{'muct_id': '419', 'lighting': 'x', 'race_guess': 'b', 'gender_guess': 'm', 'quality': '3', 'quality_eyes': '3', 'quality_mouth': '3', 'quality_ears': '3', 'quality_hair': '3', 'quality_neck': '3', 'facial_hair': '1.0', 'notes': None, 'race_common': 'black', 'gender_common': 'man'}",man,032,1.0,white,25R,D,090,oddity,man,118,0.0,15.0,25L,D,black,25L,D,"['../stimuli/version1_gray_lm/id118_25L_D.png', '../stimuli/version1_gray_lm/id032_25R_D.png']",,,0.8583691120147705,0.8424684405326843,00C,0.0
11170,626b35ef1a371c538416a85d,Chrome,2.0,main_task,1.0,2.0,chris,"4/28/2022, 8:48:47 PM",o1qhbw4lrfpx8jk9vyxn,0.0-2.0-0.0,pilot_prolific_afc2,39,woman,110,1.0,latinx,25R,U,4087.0,"['../stimuli/version1_gray_lm/id106_50L_D.png', '../stimuli/version1_gray_lm/id110_25R_U.png', '../stimuli/version1_gray_lm/id106_00C_C.png']",105948.0,0.0,2.0,1.0,encoding_practice,woman,106,"[0, 2]",latinx,"['50L', '00C']","['D', 'C']",,,,,,,,,,,,,,,,,,,,,,,,,,,,,,,,,,,,,,,,,,,,,,,,,626b3577282c133991d70a8a,626b317e2da99f76c814befa,5fa0ba49fba2f914b8b15677,,,,,,,,,,,,,,,,,,,,,0.8866308927536011,"[0.778455913066864, 0.8394277691841125]",,,,
11171,626b35f01a371c538416a85e,Chrome,,main_task,0.0,1.0,chris,"4/28/2022, 8:48:48 PM",cqbz7lh19r6krarwzy7n,0.0-126.10-0.10,pilot_prolific_afc2,,,,,,,,2027.9000000357628,,535615.0,0.0,166.0,11.0,retrieval_practice,,,,,,,,,,,,,,,,,,,,,,,,,,,,,,,,0,,,,,,,,,,,,,,,,,,,,,,,626b33cea0ce07a0486c19f1,626b317e2da99f76c814befb,590884b2ac756c0001ecb837,"{'muct_id': '43', 'lighting': 'q', 'race_guess': 'w', 'gender_guess': 'm', 'quality': '3', 'quality_eyes': '3', 'quality_mouth': '3', 'quality_ears': '3', 'quality_hair': '3', 'quality_neck': '3', 'facial_hair': '0.0', 'notes': None, 'race_common': 'white', 'gender_common': 'man'}","{'muct_id': '419', 'lighting': 'x', 'race_guess': 'b', 'gender_guess': 'm', 'quality': '3', 'quality_eyes': '3', 'quality_mouth': '3', 'quality_ears': '3', 'quality_hair': '3', 'quality_neck': '3', 'facial_hair': '1.0', 'notes': None, 'race_common': 'black', 'gender_common': 'man'}",man,032,1.0,white,25R,D,090,oddity,man,118,0.0,15.0,25L,D,black,25L,D,"['../stimuli/version1_gray_lm/id118_25L_D.png', '../stimuli/version1_gray_lm/id032_25R_D.png']",,,0.8583691120147705,0.8424684405326843,00C,0.0
11172,626b35f41a371c538416a85f,Chrome,,main_task,0.0,1.0,chris,"4/28/2022, 8:48:51 PM",cqbz7lh19r6krarwzy7n,0.0-126.11-0.11,pilot_prolific_afc2,,,,,,,,2340.2000000476837,,538792.0,0.0,168.0,12.0,retrieval_practice,,,,,,,,,,,,,,,,,,,,,,,,,,,,,,,,100,,,,,,,,,,,,,,,,,,,,,,,626b33cea0ce07a0486c19f1,626b317e2da99f76c814befb,590884b2ac756c0001ecb837,"{'muct_id': '43', 'lighting': 'q', 'race_guess': 'w', 'gender_guess': 'm', 'quality': '3', 'quality_eyes': '3', 'quality_mouth': '3', 'quality_ears': '3', 'quality_hair': '3', 'quality_neck': '3', 'facial_hair': '0.0', 'notes': None, 'race_common': 'white', 'gender_common': 'man'}","{'muct_id': '419', 'lighting': 'x', 'race_guess': 'b', 'gender_guess': 'm', 'quality': '3', 'quality_eyes': '3', 'quality_mouth': '3', 'quality_ears': '3', 'quality_hair': '3', 'quality_neck': '3', 'facial_hair': '1.0', 'notes': None, 'race_common': 'black', 'gender_common': 'man'}",man,032,1.0,white,25R,D,090,oddity,man,118,0.0,15.0,25L,D,black,25L,D,"['../stimuli/version1_gray_lm/id118_25L_D.png', '../stimuli/version1_gray_lm/id032_25R_D.png']",,,0.8583691120147705,0.8424684405326843,00C,0.0
11173,626b35f41a371c538416a860,Chrome,2.0,main_task,1.0,2.0,chris,"4/28/2022, 8:48:52 PM",o1qhbw4lrfpx8jk9vyxn,0.0-2.1-0.1,pilot_prolific_afc2,39,woman,110,1.0,latinx,25R,U,1843.0,"['../stimuli/version1_gray_lm/id106_50L_D.png', '../stimuli/version1_gray_lm/id110_25R_U.png', '../stimuli/version1_gray_lm/id106_00C_C.png']",111489.0,0.0,4.0,2.0,encoding_practice,woman,106,"[0, 2]",latinx,"['50L', '00C']","['D', 'C']",,,,,,,,,,,,,,,,,,,,,,,,,,,,,,,,,,,,,,,,,,,,,,,,,626b3577282c133991d70a8a,626b317e2da99f76c814befa,5fa0ba49fba2f914b8b15677,,,,,,,,,,,,,,,,,,,,,0.8866308927536011,"[0.778455913066864, 0.8394277691841125]",,,,
11174,626b35f81a371c538416a861,Chrome,3.0,main_task,0.0,2.0,chris,"4/28/2022, 8:48:56 PM",o1qhbw4lrfpx8jk9vyxn,0.0-2.2-0.2,pilot_prolific_afc2,40,woman,106,1.0,latinx,25L,C,2363.0,"['../stimuli/version1_gray_lm/id110_50R_D.png', '../stimuli/version1_gray_lm/id106_25L_C.png', '../stimuli/version1_gray_lm/id110_00C_U.png']",114766.0,0.0,6.0,3.0,encoding_practice,woman,110,"[0, 2]",latinx,"['50R', '00C']","['D', 'U']",,,,,,,,,,,,,,,,,,,,,,,,,,,,,,,,,,,,,,,,,,,,,,,,,626b3577282c133991d70a8a,626b317e2da99f76c814befa,5fa0ba49fba2f914b8b15677,,,,,,,,,,,,,,,,,,,,,0.8489782214164734,"[0.8334890604019165, 0.899799644947052]",,,,
11175,626b35f81a371c538416a862,Chrome,,main_task,0.0,1.0,chris,"4/28/2022, 8:48:56 PM",cqbz7lh19r6krarwzy7n,0.0-126.12-0.12,pilot_prolific_afc2,,,,,,,,3333.300000011921,,543136.0,0.0,170.0,13.0,retrieval_practice,,,,,,,,,,,,,,,,,,,,,,,,,,,,,,,,61,,,,,,,,,,,,,,,,,,,,,,,626b33cea0ce07a0486c19f1,626b317e2da99f76c814befb,590884b2ac756c0001ecb837,"{'muct_id': '43', 'lighting': 'q', 'race_guess': 'w', 'gender_guess': 'm', 'quality': '3', 'quality_eyes': '3', 'quality_mouth': '3', 'quality_ears': '3', 'quality_hair': '3', 'quality_neck': '3', 'facial_hair': '0.0', 'notes': None, 'race_common': 'white', 'gender_common': 'man'}","{'muct_id': '419', 'lighting': 'x', 'race_guess': 'b', 'gender_guess': 'm', 'quality': '3', 'quality_eyes': '3', 'quality_mouth': '3', 'quality_ears': '3', 'quality_hair': '3', 'quality_neck': '3', 'facial_hair': '1.0', 'notes': None, 'race_common': 'black', 'gender_common': 'man'}",man,032,1.0,white,25R,D,090,oddity,man,118,0.0,15.0,25L,D,black,25L,D,"['../stimuli/version1_gray_lm/id118_25L_D.png', '../stimuli/version1_gray_lm/id032_25R_D.png']",,,0.8583691120147705,0.8424684405326843,00C,0.0
11176,626b35fb1a371c538416a863,Chrome,,main_task,0.0,1.0,chris,"4/28/2022, 8:48:59 PM",cqbz7lh19r6krarwzy7n,0.0-126.13-0.13,pilot_prolific_afc2,,,,,,,,2547.100000023842,,546636.0,0.0,172.0,14.0,retrieval_practice,,,,,,,,,,,,,,,,,,,,,,,,,,,,,,,,30,,,,,,,,,,,,,,,,,,,,,,,626b33cea0ce07a0486c19f1,626b317e2da99f76c814befb,590884b2ac756c0001ecb837,"{'muct_id': '43', 'lighting': 'q', 'race_guess': 'w', 'gender_guess': 'm', 'quality': '3', 'quality_eyes': '3', 'quality_mouth': '3', 'quality_ears': '3', 'quality_hair': '3', 'quality_neck': '3', 'facial_hair': '0.0', 'notes': None, 'race_common': 'white', 'gender_common': 'man'}","{'muct_id': '419', 'lighting': 'x', 'race_guess': 'b', 'gender_guess': 'm', 'quality': '3', 'quality_eyes': '3', 'quality_mouth': '3', 'quality_ears': '3', 'quality_hair': '3', 'quality_neck': '3', 'facial_hair': '1.0', 'notes': None, 'race_common': 'black', 'gender_common': 'man'}",man,032,1.0,white,25R,D,090,oddity,man,118,0.0,15.0,25L,D,black,25L,D,"['../stimuli/version1_gray_lm/id118_25L_D.png', '../stimuli/version1_gray_lm/id032_25R_D.png']",,,0.8583691120147705,0.8424684405326843,00C,0.0
11177,626b35fd1a371c538416a864,Chrome,2.0,main_task,1.0,2.0,chris,"4/28/2022, 8:49:01 PM",o1qhbw4lrfpx8jk9vyxn,0.0-2.3-0.3,pilot_prolific_afc2,39,woman,106,1.0,latinx,00C,C,4228.0,"['../stimuli/version1_gray_lm/id108_25L_D.png', '../stimuli/version1_gray_lm/id106_00C_C.png', '../stimuli/version1_gray_lm/id108_25R_U.png']",120470.0,0.0,8.0,4.0,encoding_practice,woman,108,"[0, 2]",latinx,"['25L', '25R']","['D', 'U']",1.0,,,,,,,,,,,,,,,,,,,,,,,,,,,,,,,,,,,,,,,,,,,,,,,,626b3577282c133991d70a8a,626b317e2da99f76c814befa,5fa0ba49fba2f914b8b15677,,,,,,,,,,,,,,,,,,,,,0.8394277691841125,"[0.8258349895477295, 0.8029666543006897]",,,,
11178,626b36001a371c538416a865,Chrome,,main_task,0.0,1.0,chris,"4/28/2022, 8:49:04 PM",cqbz7lh19r6krarwzy7n,0.0-126.14-0.14,pilot_prolific_afc2,,,,,,,,3596.300000011921,,551131.0,0.0,174.0,15.0,retrieval_practice,,,,,,,,,,,,,,,,,,,,,,,,,,,,,,,,0,,,,,,,,,,,,,,,,,,,,,,,626b33cea0ce07a0486c19f1,626b317e2da99f76c814befb,590884b2ac756c0001ecb837,"{'muct_id': '43', 'lighting': 'q', 'race_guess': 'w', 'gender_guess': 'm', 'quality': '3', 'quality_eyes': '3', 'quality_mouth': '3', 'quality_ears': '3', 'quality_hair': '3', 'quality_neck': '3', 'facial_hair': '0.0', 'notes': None, 'race_common': 'white', 'gender_common': 'man'}","{'muct_id': '419', 'lighting': 'x', 'race_guess': 'b', 'gender_guess': 'm', 'quality': '3', 'quality_eyes': '3', 'quality_mouth': '3', 'quality_ears': '3', 'quality_hair': '3', 'quality_neck': '3', 'facial_hair': '1.0', 'notes': None, 'race_common': 'black', 'gender_common': 'man'}",man,032,1.0,white,25R,D,090,oddity,man,118,0.0,15.0,25L,D,black,25L,D,"['../stimuli/version1_gray_lm/id118_25L_D.png', '../stimuli/version1_gray_lm/id032_25R_D.png']",,,0.8583691120147705,0.8424684405326843,00C,0.0
11179,626b36041a371c538416a866,Chrome,,main_task,0.0,1.0,chris,"4/28/2022, 8:49:08 PM",cqbz7lh19r6krarwzy7n,0.0-126.15-0.15,pilot_prolific_afc2,,,,,,,,2869.0,,555097.0,0.0,176.0,16.0,retrieval_practice,,,,,,,,,,,,,,,,,,,,,,,,,,,,,,,,100,,,,,,,,,,,,,,,,,,,,,,,626b33cea0ce07a0486c19f1,626b317e2da99f76c814befb,590884b2ac756c0001ecb837,"{'muct_id': '43', 'lighting': 'q', 'race_guess': 'w', 'gender_guess': 'm', 'quality': '3', 'quality_eyes': '3', 'quality_mouth': '3', 'quality_ears': '3', 'quality_hair': '3', 'quality_neck': '3', 'facial_hair': '0.0', 'notes': None, 'race_common': 'white', 'gender_common': 'man'}","{'muct_id': '419', 'lighting': 'x', 'race_guess': 'b', 'gender_guess': 'm', 'quality': '3', 'quality_eyes': '3', 'quality_mouth': '3', 'quality_ears': '3', 'quality_hair': '3', 'quality_neck': '3', 'facial_hair': '1.0', 'notes': None, 'race_common': 'black', 'gender_common': 'man'}",man,032,1.0,white,25R,D,090,oddity,man,118,0.0,15.0,25L,D,black,25L,D,"['../stimuli/version1_gray_lm/id118_25L_D.png', '../stimuli/version1_gray_lm/id032_25R_D.png']",,,0.8583691120147705,0.8424684405326843,00C,0.0
11180,626b360a1a371c538416a867,Chrome,,main_task,0.0,1.0,chris,"4/28/2022, 8:49:14 PM",cqbz7lh19r6krarwzy7n,0.0-126.16-0.16,pilot_prolific_afc2,,,,,,,,4236.0,,561727.0,0.0,178.0,17.0,retrieval_practice,,,,,,,,,,,,,,,,,,,,,,,,,,,,,,,,50,,,,,,,,,,,,,,,,,,,,,,,626b33cea0ce07a0486c19f1,626b317e2da99f76c814befb,590884b2ac756c0001ecb837,"{'muct_id': '43', 'lighting': 'q', 'race_guess': 'w', 'gender_guess': 'm', 'quality': '3', 'quality_eyes': '3', 'quality_mouth': '3', 'quality_ears': '3', 'quality_hair': '3', 'quality_neck': '3', 'facial_hair': '0.0', 'notes': None, 'race_common': 'white', 'gender_common': 'man'}","{'muct_id': '419', 'lighting': 'x', 'race_guess': 'b', 'gender_guess': 'm', 'quality': '3', 'quality_eyes': '3', 'quality_mouth': '3', 'quality_ears': '3', 'quality_hair': '3', 'quality_neck': '3', 'facial_hair': '1.0', 'notes': None, 'race_common': 'black', 'gender_common': 'man'}",man,032,1.0,white,25R,D,090,oddity,man,118,0.0,15.0,25L,D,black,25L,D,"['../stimuli/version1_gray_lm/id118_25L_D.png', '../stimuli/version1_gray_lm/id032_25R_D.png']",,,0.8583691120147705,0.8424684405326843,00C,0.0
11181,626b360b1a371c538416a868,Chrome,1.0,main_task,1.0,1.0,chris,"4/28/2022, 8:49:15 PM",o1qhbw4lrfpx8jk9vyxn,0.0-4.0,pilot_prolific_afc2,37,woman,101,0.0,white,00C,C,2518.0,"['../stimuli/version1_gray_lm/id101_00C_C.png', '../stimuli/version1_gray_lm/id153_25R_U.png', '../stimuli/version1_gray_lm/id153_50L_D.png']",134345.0,0.0,11.0,1.0,encoding,woman,153,"[1, 2]",white,"['25R', '50L']","['U', 'D']",,"{'muct_id': '281', 'lighting': 't', 'race_guess': 'w', 'gender_guess': 'w', 'quality': '3', 'quality_eyes': '3', 'quality_mouth': '3', 'quality_ears': '3', 'quality_hair': '3', 'quality_neck': '3', 'facial_hair': '0.0', 'notes': None, 'race_common': 'white', 'gender_common': 'woman'}","{'muct_id': '437', 'lighting': 'x', 'race_guess': 'w', 'gender_guess': 'w', 'quality': '3', 'quality_eyes': '3', 'quality_mouth': '3', 'quality_ears': '3', 'quality_hair': '3', 'quality_neck': '3', 'facial_hair': '0.0', 'notes': 'hair', 'race_common': 'white', 'gender_common': 'woman'}",,,,,,,,,,,,,,,,,,,,,,,,,,,,,,,,,,,,,,,,,,,,,,626b3577282c133991d70a8a,626b317e2da99f76c814befa,5fa0ba49fba2f914b8b15677,,,,,,,,,,,,,,,,,,,,,0.852047860622406,"[0.7633529901504517, 0.8034223318099976]",,,,
11182,626b360e1a371c538416a869,Chrome,,main_task,0.0,1.0,chris,"4/28/2022, 8:49:18 PM",cqbz7lh19r6krarwzy7n,0.0-126.17-0.17,pilot_prolific_afc2,,,,,,,,2658.0,,565619.0,0.0,180.0,18.0,retrieval_practice,,,,,,,,,,,,,,,,,,,,,,,,,,,,,,,,43,,,,,,,,,,,,,,,,,,,,,,,626b33cea0ce07a0486c19f1,626b317e2da99f76c814befb,590884b2ac756c0001ecb837,"{'muct_id': '43', 'lighting': 'q', 'race_guess': 'w', 'gender_guess': 'm', 'quality': '3', 'quality_eyes': '3', 'quality_mouth': '3', 'quality_ears': '3', 'quality_hair': '3', 'quality_neck': '3', 'facial_hair': '0.0', 'notes': None, 'race_common': 'white', 'gender_common': 'man'}","{'muct_id': '419', 'lighting': 'x', 'race_guess': 'b', 'gender_guess': 'm', 'quality': '3', 'quality_eyes': '3', 'quality_mouth': '3', 'quality_ears': '3', 'quality_hair': '3', 'quality_neck': '3', 'facial_hair': '1.0', 'notes': None, 'race_common': 'black', 'gender_common': 'man'}",man,032,1.0,white,25R,D,090,oddity,man,118,0.0,15.0,25L,D,black,25L,D,"['../stimuli/version1_gray_lm/id118_25L_D.png', '../stimuli/version1_gray_lm/id032_25R_D.png']",,,0.8583691120147705,0.8424684405326843,00C,0.0
11183,626b36121a371c538416a86a,Chrome,,main_task,0.0,1.0,chris,"4/28/2022, 8:49:22 PM",cqbz7lh19r6krarwzy7n,0.0-126.18-0.18,pilot_prolific_afc2,,,,,,,,2753.0,,569461.0,0.0,182.0,19.0,retrieval_practice,,,,,,,,,,,,,,,,,,,,,,,,,,,,,,,,0,,,,,,,,,,,,,,,,,,,,,,,626b33cea0ce07a0486c19f1,626b317e2da99f76c814befb,590884b2ac756c0001ecb837,"{'muct_id': '43', 'lighting': 'q', 'race_guess': 'w', 'gender_guess': 'm', 'quality': '3', 'quality_eyes': '3', 'quality_mouth': '3', 'quality_ears': '3', 'quality_hair': '3', 'quality_neck': '3', 'facial_hair': '0.0', 'notes': None, 'race_common': 'white', 'gender_common': 'man'}","{'muct_id': '419', 'lighting': 'x', 'race_guess': 'b', 'gender_guess': 'm', 'quality': '3', 'quality_eyes': '3', 'quality_mouth': '3', 'quality_ears': '3', 'quality_hair': '3', 'quality_neck': '3', 'facial_hair': '1.0', 'notes': None, 'race_common': 'black', 'gender_common': 'man'}",man,032,1.0,white,25R,D,090,oddity,man,118,0.0,15.0,25L,D,black,25L,D,"['../stimuli/version1_gray_lm/id118_25L_D.png', '../stimuli/version1_gray_lm/id032_25R_D.png']",,,0.8583691120147705,0.8424684405326843,00C,0.0
11184,626b36131a371c538416a86b,Chrome,3.0,main_task,1.0,3.0,chris,"4/28/2022, 8:49:23 PM",o1qhbw4lrfpx8jk9vyxn,0.0-6.0,pilot_prolific_afc2,40,man,100,2.0,white,25L,U,7067.0,"['../stimuli/version1_gray_lm/id037_50R_D.png', '../stimuli/version1_gray_lm/id037_00C_C.png', '../stimuli/version1_gray_lm/id100_25L_U.png']",142578.0,0.0,13.0,2.0,encoding,man,037,"[0, 1]",white,"['50R', '00C']","['D', 'C']",,"{'muct_id': '280', 'lighting': 'u', 'race_guess': 'w', 'gender_guess': 'm', 'quality': '3', 'quality_eyes': '3', 'quality_mouth': '3', 'quality_ears': '3', 'quality_hair': '3', 'quality_neck': '3', 'facial_hair': '0.0', 'notes': None, 'race_common': 'white', 'gender_common': 'man'}","{'muct_id': '48', 'lighting': 'w', 'race_guess': 'w', 'gender_guess': 'm', 'quality': '3', 'quality_eyes': '3', 'quality_mouth': '3', 'quality_ears': '3', 'quality_hair': '3', 'quality_neck': '3', 'facial_hair': '0.0', 'notes': None, 'race_common': 'white', 'gender_common': 'man'}",,,,,,,,,,,,,,,,,,,,,,,,,,,,,,,,,,,,,,,,,,,,,,626b3577282c133991d70a8a,626b317e2da99f76c814befa,5fa0ba49fba2f914b8b15677,,,,,,,,,,,,,,,,,,,,,0.7549576759338379,"[0.8234284520149231, 0.8415021896362305]",,,,
11185,626b36151a371c538416a86c,Chrome,,main_task,0.0,1.0,chris,"4/28/2022, 8:49:25 PM",cqbz7lh19r6krarwzy7n,0.0-126.19-0.19,pilot_prolific_afc2,,,,,,,,2010.800000011921,,572482.0,0.0,184.0,20.0,retrieval_practice,,,,,,,,,,,,,,,,,,,,,,,,,,,,,,,,100,,,,,,,,,,,,,,,,,,,,,,,626b33cea0ce07a0486c19f1,626b317e2da99f76c814befb,590884b2ac756c0001ecb837,"{'muct_id': '43', 'lighting': 'q', 'race_guess': 'w', 'gender_guess': 'm', 'quality': '3', 'quality_eyes': '3', 'quality_mouth': '3', 'quality_ears': '3', 'quality_hair': '3', 'quality_neck': '3', 'facial_hair': '0.0', 'notes': None, 'race_common': 'white', 'gender_common': 'man'}","{'muct_id': '419', 'lighting': 'x', 'race_guess': 'b', 'gender_guess': 'm', 'quality': '3', 'quality_eyes': '3', 'quality_mouth': '3', 'quality_ears': '3', 'quality_hair': '3', 'quality_neck': '3', 'facial_hair': '1.0', 'notes': None, 'race_common': 'black', 'gender_common': 'man'}",man,032,1.0,white,25R,D,090,oddity,man,118,0.0,15.0,25L,D,black,25L,D,"['../stimuli/version1_gray_lm/id118_25L_D.png', '../stimuli/version1_gray_lm/id032_25R_D.png']",,,0.8583691120147705,0.8424684405326843,00C,0.0
11186,626b36171a371c538416a86d,Chrome,2.0,main_task,1.0,2.0,chris,"4/28/2022, 8:49:27 PM",o1qhbw4lrfpx8jk9vyxn,0.0-8.0,pilot_prolific_afc2,39,woman,103,1.0,black,00C,U,2565.0,"['../stimuli/version1_gray_lm/id068_25L_C.png', '../stimuli/version1_gray_lm/id103_00C_U.png', '../stimuli/version1_gray_lm/id068_25R_D.png']",146302.0,0.0,15.0,3.0,encoding,woman,068,"[0, 2]",black,"['25L', '25R']","['C', 'D']",,"{'muct_id': '285', 'lighting': 'v', 'race_guess': 'b', 'gender_guess': 'w', 'quality': '3', 'quality_eyes': '3', 'quality_mouth': '3', 'quality_ears': '3', 'quality_hair': '3', 'quality_neck': '3', 'facial_hair': '0.0', 'notes': 'earrings', 'race_common': 'black', 'gender_common': 'woman'}","{'muct_id': '213', 'lighting': 'u', 'race_guess': 'b', 'gender_guess': 'w', 'quality': '3', 'quality_eyes': '3', 'quality_mouth': '3', 'quality_ears': '3', 'quality_hair': '3', 'quality_neck': '3', 'facial_hair': '0.0', 'notes': None, 'race_common': 'black', 'gender_common': 'woman'}",,,,,,,,,,,,,,,,,,,,,,,,,,,,,,,,,,,,,,,,,,,,,,626b3577282c133991d70a8a,626b317e2da99f76c814befa,5fa0ba49fba2f914b8b15677,,,,,,,,,,,,,,,,,,,,,0.8371830582618713,"[0.8169711232185364, 0.815949022769928]",,,,
11187,626b361b1a371c538416a86e,Chrome,,main_task,0.0,1.0,chris,"4/28/2022, 8:49:31 PM",cqbz7lh19r6krarwzy7n,0.0-126.20-0.20,pilot_prolific_afc2,,,,,,,,2406.5,,578373.0,0.0,186.0,21.0,retrieval_practice,,,,,,,,,,,,,,,,,,,,,,,,,,,,,,,,91,,,,,,,,,,,,,,,,,,,,,,,626b33cea0ce07a0486c19f1,626b317e2da99f76c814befb,590884b2ac756c0001ecb837,"{'muct_id': '43', 'lighting': 'q', 'race_guess': 'w', 'gender_guess': 'm', 'quality': '3', 'quality_eyes': '3', 'quality_mouth': '3', 'quality_ears': '3', 'quality_hair': '3', 'quality_neck': '3', 'facial_hair': '0.0', 'notes': None, 'race_common': 'white', 'gender_common': 'man'}","{'muct_id': '419', 'lighting': 'x', 'race_guess': 'b', 'gender_guess': 'm', 'quality': '3', 'quality_eyes': '3', 'quality_mouth': '3', 'quality_ears': '3', 'quality_hair': '3', 'quality_neck': '3', 'facial_hair': '1.0', 'notes': None, 'race_common': 'black', 'gender_common': 'man'}",man,032,1.0,white,25R,D,090,oddity,man,118,0.0,15.0,25L,D,black,25L,D,"['../stimuli/version1_gray_lm/id118_25L_D.png', '../stimuli/version1_gray_lm/id032_25R_D.png']",,,0.8583691120147705,0.8424684405326843,00C,0.0
11188,626b361d1a371c538416a86f,Chrome,1.0,main_task,1.0,1.0,chris,"4/28/2022, 8:49:33 PM",o1qhbw4lrfpx8jk9vyxn,0.0-10.0,pilot_prolific_afc2,37,man,105,0.0,black,00C,D,5064.0,"['../stimuli/version1_gray_lm/id105_00C_D.png', '../stimuli/version1_gray_lm/id064_25R_U.png', '../stimuli/version1_gray_lm/id064_50L_C.png']",152160.0,0.0,17.0,4.0,encoding,man,064,"[1, 2]",black,"['25R', '50L']","['U', 'C']",,"{'muct_id': '290', 'lighting': 't', 'race_guess': 'b', 'gender_guess': 'm', 'quality': '3', 'quality_eyes': '3', 'quality_mouth': '3', 'quality_ears': '3', 'quality_hair': '3', 'quality_neck': '3', 'facial_hair': '2.0', 'notes': None, 'race_common': 'black', 'gender_common': 'man'}","{'muct_id': '204', 'lighting': 't', 'race_guess': 'b', 'gender_guess': 'm', 'quality': '3', 'quality_eyes': '3', 'quality_mouth': '3', 'quality_ears': '3', 'quality_hair': '3', 'quality_neck': '3', 'facial_hair': '1.0', 'notes': None, 'race_common': 'black', 'gender_common': 'man'}",,,,,,,,,,,,,,,,,,,,,,,,,,,,,,,,,,,,,,,,,,,,,,626b3577282c133991d70a8a,626b317e2da99f76c814befa,5fa0ba49fba2f914b8b15677,,,,,,,,,,,,,,,,,,,,,0.8777240514755249,"[0.7903277277946472, 0.7999480962753296]",,,,
11189,626b361e1a371c538416a870,Chrome,,main_task,0.0,1.0,chris,"4/28/2022, 8:49:34 PM",cqbz7lh19r6krarwzy7n,0.0-126.21-0.21,pilot_prolific_afc2,,,,,,,,1975.3999999761581,,581299.0,0.0,188.0,22.0,retrieval_practice,,,,,,,,,,,,,,,,,,,,,,,,,,,,,,,,17,,,,,,,,,,,,,,,,,,,,,,,626b33cea0ce07a0486c19f1,626b317e2da99f76c814befb,590884b2ac756c0001ecb837,"{'muct_id': '43', 'lighting': 'q', 'race_guess': 'w', 'gender_guess': 'm', 'quality': '3', 'quality_eyes': '3', 'quality_mouth': '3', 'quality_ears': '3', 'quality_hair': '3', 'quality_neck': '3', 'facial_hair': '0.0', 'notes': None, 'race_common': 'white', 'gender_common': 'man'}","{'muct_id': '419', 'lighting': 'x', 'race_guess': 'b', 'gender_guess': 'm', 'quality': '3', 'quality_eyes': '3', 'quality_mouth': '3', 'quality_ears': '3', 'quality_hair': '3', 'quality_neck': '3', 'facial_hair': '1.0', 'notes': None, 'race_common': 'black', 'gender_common': 'man'}",man,032,1.0,white,25R,D,090,oddity,man,118,0.0,15.0,25L,D,black,25L,D,"['../stimuli/version1_gray_lm/id118_25L_D.png', '../stimuli/version1_gray_lm/id032_25R_D.png']",,,0.8583691120147705,0.8424684405326843,00C,0.0
11190,626b36211a371c538416a871,Chrome,2.0,main_task,1.0,2.0,chris,"4/28/2022, 8:49:37 PM",o1qhbw4lrfpx8jk9vyxn,0.0-12.0,pilot_prolific_afc2,39,woman,102,1.0,white,50L,U,2946.0,"['../stimuli/version1_gray_lm/id088_00C_D.png', '../stimuli/version1_gray_lm/id102_50L_U.png', '../stimuli/version1_gray_lm/id088_25R_C.png']",156354.0,0.0,19.0,5.0,encoding,woman,088,"[0, 2]",white,"['00C', '25R']","['D', 'C']",,"{'muct_id': '283', 'lighting': 't', 'race_guess': 'i', 'gender_guess': 'w', 'quality': '3', 'quality_eyes': '3', 'quality_mouth': '3', 'quality_ears': '3', 'quality_hair': '3', 'quality_neck': '3', 'facial_hair': '0.0', 'notes': 'pottu', 'race_common': 'white', 'gender_common': 'woman'}","{'muct_id': '252', 'lighting': 't', 'race_guess': 'w', 'gender_guess': 'w', 'quality': '3', 'quality_eyes': '3', 'quality_mouth': '3', 'quality_ears': '3', 'quality_hair': '3', 'quality_neck': '3', 'facial_hair': '0.0', 'notes': 'hair', 'race_common': 'white', 'gender_common': 'woman'}",,,,,,,,,,,,,,,,,,,,,,,,,,,,,,,,,,,,,,,,,,,,,,626b3577282c133991d70a8a,626b317e2da99f76c814befa,5fa0ba49fba2f914b8b15677,,,,,,,,,,,,,,,,,,,,,0.7892012596130371,"[0.8339982628822327, 0.7728192210197449]",,,,
