,_id,browser,choice,collection,correct,correct_response,database,datetime,experiment_id,internal_node_id,iteration,key_press,oddity_gender,oddity_identity,oddity_index,oddity_race,oddity_tiltLR,oddity_tiltUD,rt,stimulus,time_elapsed,timed_out,trial_index,trial_number,trial_type,typicals_gender,typicals_identity,typicals_indices,typicals_race,typicals_tiltsLR,typicals_tiltsUD,practice_threshold_met,oddity_meta,typicals_meta,button_pressed,last_trial_type,prediction,choice_category,choice_object,oddity_category,oddity_name,oddity_type,stimulus_response_map,typical_category,typical_indices,typical_name,variation_level,encoding_pair,encoding_type,gender,identity,meta,original_index,original_tiltLR,original_tiltUD,race,response,retrieval_condition,tiltLR,tiltUD,tilt_change,tilt_difference,original_tilt,encoding_accuracy,encoding_avg_rt,encoding_n_trials,experimental_duration,filler_accuracy,filler_avg_rt,filler_n_trials,params,retrieval_accuracy,retrieval_avg_rt,retrieval_n_trials,total_bonus,total_payment,age,gender_other,latinx,session_id,study_id,subject_id,meta_new,meta_old,new_gender,new_identity,new_index,new_race,new_tiltLR,new_tiltUD,old_encoding_pair,old_encoding_type,old_gender,old_identity,old_index,old_original_index,old_original_tiltLR,old_original_tiltUD,old_race,old_tiltLR,old_tiltUD,stimuli,oddity_mb,typicals_mb,new_mb,old_mb,old_tilt_change,old_tilt_difference
13686,626f81c91a371c538416b231,Chrome,2.0,main_task,1.0,2.0,chris,"5/2/2022, 12:01:29 AM",hgdn3jchvl76kthdexth,0.0-2.0-0.0,pilot_sona_afc2,39,man,095,1.0,latinx,00C,D,2823,"['../stimuli/version1_gray_lm/id070_50L_U.png', '../stimuli/version1_gray_lm/id095_00C_D.png', '../stimuli/version1_gray_lm/id070_25R_C.png']",34973.0,0.0,2.0,1.0,encoding_practice,man,070,"[0, 2]",latinx,"['50L', '25R']","['U', 'C']",,,,,,,,,,,,,,,,,,,,,,,,,,,,,,,,,,,,,,,,,,,,,,,,,,,,,,,,,,,,,,,,,,,,,,,,0.8834578394889832,"[0.8247036933898926, 0.8558252453804016]",,,,
13687,626f81cd1a371c538416b232,Chrome,2.0,main_task,1.0,2.0,chris,"5/2/2022, 12:01:33 AM",hgdn3jchvl76kthdexth,0.0-2.1-0.1,pilot_sona_afc2,39,man,095,1.0,latinx,25L,U,1885,"['../stimuli/version1_gray_lm/id096_25R_D.png', '../stimuli/version1_gray_lm/id095_25L_U.png', '../stimuli/version1_gray_lm/id096_00C_C.png']",39180.0,0.0,4.0,2.0,encoding_practice,man,096,"[0, 2]",latinx,"['25R', '00C']","['D', 'C']",,,,,,,,,,,,,,,,,,,,,,,,,,,,,,,,,,,,,,,,,,,,,,,,,,,,,,,,,,,,,,,,,,,,,,,,0.8158042430877686,"[0.8536939024925232, 0.8785906434059143]",,,,
13688,626f81cf1a371c538416b233,Chrome,3.0,main_task,0.0,1.0,chris,"5/2/2022, 12:01:35 AM",hgdn3jchvl76kthdexth,0.0-2.2-0.2,pilot_sona_afc2,40,man,095,0.0,latinx,25L,D,1159,"['../stimuli/version1_gray_lm/id095_25L_D.png', '../stimuli/version1_gray_lm/id096_00C_C.png', '../stimuli/version1_gray_lm/id096_50R_U.png']",41134.0,0.0,6.0,3.0,encoding_practice,man,096,"[1, 2]",latinx,"['00C', '50R']","['C', 'U']",,,,,,,,,,,,,,,,,,,,,,,,,,,,,,,,,,,,,,,,,,,,,,,,,,,,,,,,,,,,,,,,,,,,,,,,0.8532259464263916,"[0.8785906434059143, 0.8884777426719666]",,,,
13689,626f81d31a371c538416b234,Chrome,2.0,main_task,0.0,1.0,chris,"5/2/2022, 12:01:39 AM",hgdn3jchvl76kthdexth,0.0-2.3-0.3,pilot_sona_afc2,39,man,095,0.0,latinx,25R,U,3079,"['../stimuli/version1_gray_lm/id095_25R_U.png', '../stimuli/version1_gray_lm/id096_00C_D.png', '../stimuli/version1_gray_lm/id096_50L_C.png']",45240.0,0.0,8.0,4.0,encoding_practice,man,096,"[1, 2]",latinx,"['00C', '50L']","['D', 'C']",,,,,,,,,,,,,,,,,,,,,,,,,,,,,,,,,,,,,,,,,,,,,,,,,,,,,,,,,,,,,,,,,,,,,,,,0.8428494930267334,"[0.8920971155166626, 0.8490014672279358]",,,,
13690,626f81d61a371c538416b235,Chrome,3.0,main_task,1.0,3.0,chris,"5/2/2022, 12:01:42 AM",hgdn3jchvl76kthdexth,0.0-2.4-0.4,pilot_sona_afc2,40,man,095,2.0,latinx,25R,C,1867,"['../stimuli/version1_gray_lm/id070_25L_D.png', '../stimuli/version1_gray_lm/id070_00C_U.png', '../stimuli/version1_gray_lm/id095_25R_C.png']",48021.0,0.0,10.0,5.0,encoding_practice,man,070,"[0, 1]",latinx,"['25L', '00C']","['D', 'U']",1.0,,,,,,,,,,,,,,,,,,,,,,,,,,,,,,,,,,,,,,,,,,,,,,,,,,,,,,,,,,,,,,,,,,,,,,,0.8291288018226624,"[0.8671533465385437, 0.8339991569519043]",,,,
13691,626f81dd1a371c538416b236,Chrome,2.0,main_task,1.0,2.0,chris,"5/2/2022, 12:01:49 AM",hgdn3jchvl76kthdexth,0.0-4.0,pilot_sona_afc2,39,man,124,1.0,black,25L,D,3152,"['../stimuli/version1_gray_lm/id036_50R_C.png', '../stimuli/version1_gray_lm/id124_25L_D.png', '../stimuli/version1_gray_lm/id036_00C_U.png']",55105.0,0.0,13.0,1.0,encoding,man,036,"[0, 2]",black,"['50R', '00C']","['C', 'U']",,"{'muct_id': '431', 'lighting': 'x', 'race_guess': 'b', 'gender_guess': 'u', 'quality': '3', 'quality_eyes': '3', 'quality_mouth': '3', 'quality_ears': '3', 'quality_hair': '3', 'quality_neck': '3', 'facial_hair': '0.0', 'notes': 'mouth', 'race_common': 'black', 'gender_common': 'man'}","{'muct_id': '47', 'lighting': 'q', 'race_guess': 'b', 'gender_guess': 'u', 'quality': '3', 'quality_eyes': '3', 'quality_mouth': '3', 'quality_ears': '3', 'quality_hair': '3', 'quality_neck': '3', 'facial_hair': '0.0', 'notes': None, 'race_common': 'black', 'gender_common': 'man'}",,,,,,,,,,,,,,,,,,,,,,,,,,,,,,,,,,,,,,,,,,,,,,,,,,,,,,,,,,,,,,,,,,,,,0.8714814782142639,"[0.8134759068489075, 0.8151718974113464]",,,,
13692,626f81e01a371c538416b237,Chrome,2.0,main_task,1.0,2.0,chris,"5/2/2022, 12:01:52 AM",hgdn3jchvl76kthdexth,0.0-6.0,pilot_sona_afc2,39,man,117,1.0,black,25R,D,2347,"['../stimuli/version1_gray_lm/id058_50L_U.png', '../stimuli/version1_gray_lm/id117_25R_D.png', '../stimuli/version1_gray_lm/id058_00C_C.png']",58383.0,0.0,15.0,2.0,encoding,man,058,"[0, 2]",black,"['50L', '00C']","['U', 'C']",,"{'muct_id': '417', 'lighting': 'w', 'race_guess': 'b', 'gender_guess': 'm', 'quality': '3', 'quality_eyes': '3', 'quality_mouth': '3', 'quality_ears': '3', 'quality_hair': '3', 'quality_neck': '3', 'facial_hair': '1.0', 'notes': 'mouth', 'race_common': 'black', 'gender_common': 'man'}","{'muct_id': '84', 'lighting': 'q', 'race_guess': 'b', 'gender_guess': 'm', 'quality': '2', 'quality_eyes': '2', 'quality_mouth': '3', 'quality_ears': '3', 'quality_hair': '3', 'quality_neck': '3', 'facial_hair': '3.0', 'notes': 'beard', 'race_common': 'black', 'gender_common': 'man'}",,,,,,,,,,,,,,,,,,,,,,,,,,,,,,,,,,,,,,,,,,,,,,,,,,,,,,,,,,,,,,,,,,,,,0.8589047789573669,"[0.7713642716407776, 0.8411322832107544]",,,,
13693,626f81e31a371c538416b238,Chrome,3.0,main_task,1.0,3.0,chris,"5/2/2022, 12:01:55 AM",hgdn3jchvl76kthdexth,0.0-8.0,pilot_sona_afc2,40,woman,152,2.0,white,00C,D,1630,"['../stimuli/version1_gray_lm/id003_50L_U.png', '../stimuli/version1_gray_lm/id003_25R_C.png', '../stimuli/version1_gray_lm/id152_00C_D.png']",60596.0,0.0,17.0,3.0,encoding,woman,003,"[0, 1]",white,"['50L', '25R']","['U', 'C']",,"{'muct_id': '446', 'lighting': 'w', 'race_guess': 'w', 'gender_guess': 'w', 'quality': '3', 'quality_eyes': '3', 'quality_mouth': '3', 'quality_ears': '3', 'quality_hair': '3', 'quality_neck': '3', 'facial_hair': '0.0', 'notes': None, 'race_common': 'white', 'gender_common': 'woman'}","{'muct_id': '3', 'lighting': 's', 'race_guess': 'i', 'gender_guess': 'w', 'quality': '2', 'quality_eyes': '3', 'quality_mouth': '3', 'quality_ears': '3', 'quality_hair': '2', 'quality_neck': '3', 'facial_hair': '0.0', 'notes': 'hair', 'race_common': 'white', 'gender_common': 'woman'}",,,,,,,,,,,,,,,,,,,,,,,,,,,,,,,,,,,,,,,,,,,,,,,,,,,,,,,,,,,,,,,,,,,,,0.8790462017059326,"[0.7647145986557007, 0.8329657912254333]",,,,
13694,626f81e51a371c538416b239,Chrome,1.0,main_task,1.0,1.0,chris,"5/2/2022, 12:01:57 AM",hgdn3jchvl76kthdexth,0.0-10.0,pilot_sona_afc2,37,woman,151,0.0,white,50L,U,2058,"['../stimuli/version1_gray_lm/id151_50L_U.png', '../stimuli/version1_gray_lm/id029_25R_D.png', '../stimuli/version1_gray_lm/id029_00C_C.png']",63153.0,0.0,19.0,4.0,encoding,woman,029,"[1, 2]",white,"['25R', '00C']","['D', 'C']",,"{'muct_id': '444', 'lighting': 'w', 'race_guess': 'w', 'gender_guess': 'w', 'quality': '3', 'quality_eyes': '3', 'quality_mouth': '3', 'quality_ears': '3', 'quality_hair': '3', 'quality_neck': '3', 'facial_hair': '0.0', 'notes': None, 'race_common': 'white', 'gender_common': 'woman'}","{'muct_id': '39', 'lighting': 'r', 'race_guess': 'w', 'gender_guess': 'w', 'quality': '3', 'quality_eyes': '3', 'quality_mouth': '3', 'quality_ears': '3', 'quality_hair': '3', 'quality_neck': '3', 'facial_hair': '0.0', 'notes': 'earrings hair', 'race_common': 'white', 'gender_common': 'woman'}",,,,,,,,,,,,,,,,,,,,,,,,,,,,,,,,,,,,,,,,,,,,,,,,,,,,,,,,,,,,,,,,,,,,,0.8179031610488892,"[0.8330068588256836, 0.823814868927002]",,,,
13695,626f81e81a371c538416b23a,Chrome,2.0,main_task,1.0,2.0,chris,"5/2/2022, 12:02:00 AM",hgdn3jchvl76kthdexth,0.0-12.0,pilot_sona_afc2,39,man,116,1.0,white,00C,D,2177,"['../stimuli/version1_gray_lm/id032_25L_C.png', '../stimuli/version1_gray_lm/id116_00C_D.png', '../stimuli/version1_gray_lm/id032_25R_U.png']",65727.0,0.0,21.0,5.0,encoding,man,032,"[0, 2]",white,"['25L', '25R']","['C', 'U']",,"{'muct_id': '414', 'lighting': 'w', 'race_guess': 'w', 'gender_guess': 'm', 'quality': '3', 'quality_eyes': '3', 'quality_mouth': '3', 'quality_ears': '3', 'quality_hair': '3', 'quality_neck': '3', 'facial_hair': '0.0', 'notes': None, 'race_common': 'white', 'gender_common': 'man'}","{'muct_id': '43', 'lighting': 'q', 'race_guess': 'w', 'gender_guess': 'm', 'quality': '3', 'quality_eyes': '3', 'quality_mouth': '3', 'quality_ears': '3', 'quality_hair': '3', 'quality_neck': '3', 'facial_hair': '0.0', 'notes': None, 'race_common': 'white', 'gender_common': 'man'}",,,,,,,,,,,,,,,,,,,,,,,,,,,,,,,,,,,,,,,,,,,,,,,,,,,,,,,,,,,,,,,,,,,,,0.8697882890701294,"[0.8447374701499939, 0.80922532081604]",,,,
13696,626f81eb1a371c538416b23b,Chrome,1.0,main_task,1.0,1.0,chris,"5/2/2022, 12:02:03 AM",hgdn3jchvl76kthdexth,0.0-14.0,pilot_sona_afc2,37,man,086,0.0,black,50L,U,2377,"['../stimuli/version1_gray_lm/id086_50L_U.png', '../stimuli/version1_gray_lm/id105_00C_D.png', '../stimuli/version1_gray_lm/id105_25R_C.png']",68600.0,0.0,23.0,6.0,encoding,man,105,"[1, 2]",black,"['00C', '25R']","['D', 'C']",,"{'muct_id': '250', 'lighting': 't', 'race_guess': 'b', 'gender_guess': 'm', 'quality': '3', 'quality_eyes': '3', 'quality_mouth': '3', 'quality_ears': '3', 'quality_hair': '3', 'quality_neck': '3', 'facial_hair': '1.0', 'notes': None, 'race_common': 'black', 'gender_common': 'man'}","{'muct_id': '290', 'lighting': 't', 'race_guess': 'b', 'gender_guess': 'm', 'quality': '3', 'quality_eyes': '3', 'quality_mouth': '3', 'quality_ears': '3', 'quality_hair': '3', 'quality_neck': '3', 'facial_hair': '2.0', 'notes': None, 'race_common': 'black', 'gender_common': 'man'}",,,,,,,,,,,,,,,,,,,,,,,,,,,,,,,,,,,,,,,,,,,,,,,,,,,,,,,,,,,,,,,,,,,,,0.80256187915802,"[0.8777240514755249, 0.8070216774940491]",,,,
13697,626f81ed1a371c538416b23c,Chrome,1.0,main_task,1.0,1.0,chris,"5/2/2022, 12:02:05 AM",hgdn3jchvl76kthdexth,0.0-16.0,pilot_sona_afc2,37,man,044,0.0,white,50R,U,2135,"['../stimuli/version1_gray_lm/id044_50R_U.png', '../stimuli/version1_gray_lm/id104_00C_D.png', '../stimuli/version1_gray_lm/id104_50L_C.png']",71163.0,0.0,25.0,7.0,encoding,man,104,"[1, 2]",white,"['00C', '50L']","['D', 'C']",,"{'muct_id': '60', 'lighting': 's', 'race_guess': 'u', 'gender_guess': 'm', 'quality': '3', 'quality_eyes': '3', 'quality_mouth': '3', 'quality_ears': '3', 'quality_hair': '3', 'quality_neck': '3', 'facial_hair': '2.0', 'notes': None, 'race_common': 'white', 'gender_common': 'man'}","{'muct_id': '287', 'lighting': 't', 'race_guess': 'w', 'gender_guess': 'm', 'quality': '3', 'quality_eyes': '3', 'quality_mouth': '3', 'quality_ears': '3', 'quality_hair': '3', 'quality_neck': '3', 'facial_hair': '2.0', 'notes': None, 'race_common': 'white', 'gender_common': 'man'}",,,,,,,,,,,,,,,,,,,,,,,,,,,,,,,,,,,,,,,,,,,,,,,,,,,,,,,,,,,,,,,,,,,,,0.7970460057258606,"[0.8582553267478943, 0.8091800808906555]",,,,
13698,626f81f01a371c538416b23d,Chrome,3.0,main_task,0.0,1.0,chris,"5/2/2022, 12:02:08 AM",hgdn3jchvl76kthdexth,0.0-18.0,pilot_sona_afc2,40,man,021,0.0,black,25R,U,1891,"['../stimuli/version1_gray_lm/id021_25R_U.png', '../stimuli/version1_gray_lm/id113_50L_D.png', '../stimuli/version1_gray_lm/id113_00C_C.png']",73520.0,0.0,27.0,8.0,encoding,man,113,"[1, 2]",black,"['50L', '00C']","['D', 'C']",,"{'muct_id': '25', 'lighting': 'r', 'race_guess': 'b', 'gender_guess': 'm', 'quality': '3', 'quality_eyes': '3', 'quality_mouth': '3', 'quality_ears': '3', 'quality_hair': '3', 'quality_neck': '3', 'facial_hair': '2.0', 'notes': None, 'race_common': 'black', 'gender_common': 'man'}","{'muct_id': '407', 'lighting': 'x', 'race_guess': 'u', 'gender_guess': 'm', 'quality': '3', 'quality_eyes': '3', 'quality_mouth': '3', 'quality_ears': '3', 'quality_hair': '3', 'quality_neck': '3', 'facial_hair': '3.0', 'notes': 'beard', 'race_common': 'black', 'gender_common': 'man'}",,,,,,,,,,,,,,,,,,,,,,,,,,,,,,,,,,,,,,,,,,,,,,,,,,,,,,,,,,,,,,,,,,,,,0.8069405555725098,"[0.8309226036071777, 0.8316852450370789]",,,,
13699,626f81f21a371c538416b23e,Chrome,2.0,main_task,0.0,1.0,chris,"5/2/2022, 12:02:10 AM",hgdn3jchvl76kthdexth,0.0-20.0,pilot_sona_afc2,39,man,091,0.0,black,00C,U,1686,"['../stimuli/version1_gray_lm/id091_00C_U.png', '../stimuli/version1_gray_lm/id107_25R_D.png', '../stimuli/version1_gray_lm/id107_50L_C.png']",75659.0,0.0,29.0,9.0,encoding,man,107,"[1, 2]",black,"['25R', '50L']","['D', 'C']",,"{'muct_id': '260', 'lighting': 't', 'race_guess': 'b', 'gender_guess': 'm', 'quality': '3', 'quality_eyes': '3', 'quality_mouth': '3', 'quality_ears': '3', 'quality_hair': '3', 'quality_neck': '3', 'facial_hair': '4.0', 'notes': 'beard', 'race_common': 'black', 'gender_common': 'man'}","{'muct_id': '297', 'lighting': 't', 'race_guess': 'b', 'gender_guess': 'm', 'quality': '3', 'quality_eyes': '3', 'quality_mouth': '3', 'quality_ears': '3', 'quality_hair': '3', 'quality_neck': '3', 'facial_hair': '4.0', 'notes': 'beard', 'race_common': 'black', 'gender_common': 'man'}",,,,,,,,,,,,,,,,,,,,,,,,,,,,,,,,,,,,,,,,,,,,,,,,,,,,,,,,,,,,,,,,,,,,,0.8096175789833069,"[0.8193733096122742, 0.8068792819976807]",,,,
13700,626f81f41a371c538416b23f,Chrome,1.0,main_task,1.0,1.0,chris,"5/2/2022, 12:02:12 AM",hgdn3jchvl76kthdexth,0.0-22.0,pilot_sona_afc2,37,woman,102,0.0,white,25L,U,1635,"['../stimuli/version1_gray_lm/id102_25L_U.png', '../stimuli/version1_gray_lm/id101_00C_C.png', '../stimuli/version1_gray_lm/id101_50R_D.png']",77655.0,0.0,31.0,10.0,encoding,woman,101,"[1, 2]",white,"['00C', '50R']","['C', 'D']",,"{'muct_id': '283', 'lighting': 't', 'race_guess': 'i', 'gender_guess': 'w', 'quality': '3', 'quality_eyes': '3', 'quality_mouth': '3', 'quality_ears': '3', 'quality_hair': '3', 'quality_neck': '3', 'facial_hair': '0.0', 'notes': 'pottu', 'race_common': 'white', 'gender_common': 'woman'}","{'muct_id': '281', 'lighting': 't', 'race_guess': 'w', 'gender_guess': 'w', 'quality': '3', 'quality_eyes': '3', 'quality_mouth': '3', 'quality_ears': '3', 'quality_hair': '3', 'quality_neck': '3', 'facial_hair': '0.0', 'notes': None, 'race_common': 'white', 'gender_common': 'woman'}",,,,,,,,,,,,,,,,,,,,,,,,,,,,,,,,,,,,,,,,,,,,,,,,,,,,,,,,,,,,,,,,,,,,,0.7710289359092712,"[0.852047860622406, 0.8166340589523315]",,,,
13701,626f81f61a371c538416b240,Chrome,2.0,main_task,0.0,3.0,chris,"5/2/2022, 12:02:14 AM",hgdn3jchvl76kthdexth,0.0-24.0,pilot_sona_afc2,39,woman,136,2.0,black,50R,U,1892,"['../stimuli/version1_gray_lm/id046_25L_D.png', '../stimuli/version1_gray_lm/id046_00C_C.png', '../stimuli/version1_gray_lm/id136_50R_U.png']",79897.0,0.0,33.0,11.0,encoding,woman,046,"[0, 1]",black,"['25L', '00C']","['D', 'C']",,"{'muct_id': '616', 'lighting': 'y', 'race_guess': 'b', 'gender_guess': 'w', 'quality': '3', 'quality_eyes': '3', 'quality_mouth': '3', 'quality_ears': '3', 'quality_hair': '3', 'quality_neck': '3', 'facial_hair': '0.0', 'notes': 'earrings', 'race_common': 'black', 'gender_common': 'woman'}","{'muct_id': '63', 'lighting': 'q', 'race_guess': 'i', 'gender_guess': 'w', 'quality': '3', 'quality_eyes': '3', 'quality_mouth': '3', 'quality_ears': '3', 'quality_hair': '3', 'quality_neck': '3', 'facial_hair': '0.0', 'notes': None, 'race_common': 'black', 'gender_common': 'woman'}",,,,,,,,,,,,,,,,,,,,,,,,,,,,,,,,,,,,,,,,,,,,,,,,,,,,,,,,,,,,,,,,,,,,,0.848493754863739,"[0.8773627877235413, 0.8582973480224609]",,,,
13702,626f81f81a371c538416b241,Chrome,3.0,main_task,1.0,3.0,chris,"5/2/2022, 12:02:16 AM",hgdn3jchvl76kthdexth,0.0-26.0,pilot_sona_afc2,40,man,080,2.0,white,00C,C,2090,"['../stimuli/version1_gray_lm/id041_25R_U.png', '../stimuli/version1_gray_lm/id041_50L_D.png', '../stimuli/version1_gray_lm/id080_00C_C.png']",82292.0,0.0,35.0,12.0,encoding,man,041,"[0, 1]",white,"['25R', '50L']","['U', 'D']",,"{'muct_id': '240', 'lighting': 'u', 'race_guess': 'w', 'gender_guess': 'm', 'quality': '3', 'quality_eyes': '3', 'quality_mouth': '3', 'quality_ears': '3', 'quality_hair': '3', 'quality_neck': '3', 'facial_hair': '0.0', 'notes': 'mouth', 'race_common': 'white', 'gender_common': 'man'}","{'muct_id': '56', 'lighting': 'q', 'race_guess': 'w', 'gender_guess': 'm', 'quality': '3', 'quality_eyes': '3', 'quality_mouth': '3', 'quality_ears': '3', 'quality_hair': '3', 'quality_neck': '3', 'facial_hair': '0.0', 'notes': None, 'race_common': 'white', 'gender_common': 'man'}",,,,,,,,,,,,,,,,,,,,,,,,,,,,,,,,,,,,,,,,,,,,,,,,,,,,,,,,,,,,,,,,,,,,,0.8277982473373413,"[0.8482251167297363, 0.8214578032493591]",,,,
13703,626f81fa1a371c538416b242,Chrome,3.0,main_task,1.0,3.0,chris,"5/2/2022, 12:02:18 AM",hgdn3jchvl76kthdexth,0.0-28.0,pilot_sona_afc2,40,woman,109,2.0,white,00C,C,1398,"['../stimuli/version1_gray_lm/id017_25L_U.png', '../stimuli/version1_gray_lm/id017_25R_D.png', '../stimuli/version1_gray_lm/id109_00C_C.png']",84182.0,0.0,37.0,13.0,encoding,woman,017,"[0, 1]",white,"['25L', '25R']","['U', 'D']",,"{'muct_id': '401', 'lighting': 'w', 'race_guess': 'w', 'gender_guess': 'w', 'quality': '3', 'quality_eyes': '3', 'quality_mouth': '3', 'quality_ears': '3', 'quality_hair': '3', 'quality_neck': '3', 'facial_hair': '0.0', 'notes': 'mouth', 'race_common': 'white', 'gender_common': 'woman'}","{'muct_id': '19', 'lighting': 'r', 'race_guess': 'w', 'gender_guess': 'w', 'quality': '3', 'quality_eyes': '3', 'quality_mouth': '3', 'quality_ears': '3', 'quality_hair': '3', 'quality_neck': '3', 'facial_hair': '0.0', 'notes': None, 'race_common': 'white', 'gender_common': 'woman'}",,,,,,,,,,,,,,,,,,,,,,,,,,,,,,,,,,,,,,,,,,,,,,,,,,,,,,,,,,,,,,,,,,,,,0.8643267154693604,"[0.76385098695755, 0.8247504830360413]",,,,
13704,626f81fc1a371c538416b243,Chrome,2.0,main_task,1.0,2.0,chris,"5/2/2022, 12:02:20 AM",hgdn3jchvl76kthdexth,0.0-30.0,pilot_sona_afc2,39,man,145,1.0,white,50R,U,1443,"['../stimuli/version1_gray_lm/id039_00C_C.png', '../stimuli/version1_gray_lm/id145_50R_U.png', '../stimuli/version1_gray_lm/id039_25L_D.png']",86071.0,0.0,39.0,14.0,encoding,man,039,"[0, 2]",white,"['00C', '25L']","['C', 'D']",,"{'muct_id': '230', 'lighting': 'u', 'race_guess': 'w', 'gender_guess': 'm', 'quality': '3', 'quality_eyes': '3', 'quality_mouth': '3', 'quality_ears': '3', 'quality_hair': '3', 'quality_neck': '3', 'facial_hair': '0.0', 'notes': 'hair', 'race_common': 'white', 'gender_common': 'man'}","{'muct_id': '52', 'lighting': 'q', 'race_guess': 'w', 'gender_guess': 'm', 'quality': '3', 'quality_eyes': '3', 'quality_mouth': '3', 'quality_ears': '3', 'quality_hair': '3', 'quality_neck': '3', 'facial_hair': '0.0', 'notes': None, 'race_common': 'white', 'gender_common': 'man'}",,,,,,,,,,,,,,,,,,,,,,,,,,,,,,,,,,,,,,,,,,,,,,,,,,,,,,,,,,,,,,,,,,,,,0.8455218076705933,"[0.8469932675361633, 0.8687136173248291]",,,,
13705,626f81fe1a371c538416b244,Chrome,2.0,main_task,0.0,3.0,chris,"5/2/2022, 12:02:22 AM",hgdn3jchvl76kthdexth,0.0-32.0,pilot_sona_afc2,39,man,118,2.0,black,00C,D,1450,"['../stimuli/version1_gray_lm/id064_25L_C.png', '../stimuli/version1_gray_lm/id064_50R_U.png', '../stimuli/version1_gray_lm/id118_00C_D.png']",87896.0,0.0,41.0,15.0,encoding,man,064,"[0, 1]",black,"['25L', '50R']","['C', 'U']",,"{'muct_id': '419', 'lighting': 'x', 'race_guess': 'b', 'gender_guess': 'm', 'quality': '3', 'quality_eyes': '3', 'quality_mouth': '3', 'quality_ears': '3', 'quality_hair': '3', 'quality_neck': '3', 'facial_hair': '1.0', 'notes': None, 'race_common': 'black', 'gender_common': 'man'}","{'muct_id': '204', 'lighting': 't', 'race_guess': 'b', 'gender_guess': 'm', 'quality': '3', 'quality_eyes': '3', 'quality_mouth': '3', 'quality_ears': '3', 'quality_hair': '3', 'quality_neck': '3', 'facial_hair': '1.0', 'notes': None, 'race_common': 'black', 'gender_common': 'man'}",,,,,,,,,,,,,,,,,,,,,,,,,,,,,,,,,,,,,,,,,,,,,,,,,,,,,,,,,,,,,,,,,,,,,0.8874856233596802,"[0.8300010561943054, 0.8682677149772644]",,,,
13706,626f82001a371c538416b245,Chrome,2.0,main_task,1.0,2.0,chris,"5/2/2022, 12:02:24 AM",hgdn3jchvl76kthdexth,0.0-34.0,pilot_sona_afc2,39,man,030,1.0,black,50L,C,1715,"['../stimuli/version1_gray_lm/id085_00C_U.png', '../stimuli/version1_gray_lm/id030_50L_C.png', '../stimuli/version1_gray_lm/id085_25R_D.png']",90031.0,0.0,43.0,16.0,encoding,man,085,"[0, 2]",black,"['00C', '25R']","['U', 'D']",,"{'muct_id': '41', 'lighting': 'r', 'race_guess': 'b', 'gender_guess': 'm', 'quality': '3', 'quality_eyes': '3', 'quality_mouth': '3', 'quality_ears': '3', 'quality_hair': '3', 'quality_neck': '3', 'facial_hair': '0.0', 'notes': None, 'race_common': 'black', 'gender_common': 'man'}","{'muct_id': '249', 'lighting': 't', 'race_guess': 'b', 'gender_guess': 'w', 'quality': '2', 'quality_eyes': '2', 'quality_mouth': '3', 'quality_ears': '3', 'quality_hair': '3', 'quality_neck': '3', 'facial_hair': '0.0', 'notes': None, 'race_common': 'black', 'gender_common': 'man'}",,,,,,,,,,,,,,,,,,,,,,,,,,,,,,,,,,,,,,,,,,,,,,,,,,,,,,,,,,,,,,,,,,,,,0.8169581294059753,"[0.7360147833824158, 0.8420043587684631]",,,,
13707,626f82031a371c538416b246,Chrome,2.0,main_task,1.0,2.0,chris,"5/2/2022, 12:02:27 AM",hgdn3jchvl76kthdexth,0.0-36.0,pilot_sona_afc2,39,man,083,1.0,black,50R,U,2679,"['../stimuli/version1_gray_lm/id097_50L_D.png', '../stimuli/version1_gray_lm/id083_50R_U.png', '../stimuli/version1_gray_lm/id097_00C_C.png']",93036.0,0.0,45.0,17.0,encoding,man,097,"[0, 2]",black,"['50L', '00C']","['D', 'C']",,"{'muct_id': '243', 'lighting': 'v', 'race_guess': 'b', 'gender_guess': 'm', 'quality': '3', 'quality_eyes': '3', 'quality_mouth': '3', 'quality_ears': '3', 'quality_hair': '3', 'quality_neck': '3', 'facial_hair': '0.0', 'notes': None, 'race_common': 'black', 'gender_common': 'man'}","{'muct_id': '269', 'lighting': 'u', 'race_guess': 'b', 'gender_guess': 'm', 'quality': '3', 'quality_eyes': '3', 'quality_mouth': '3', 'quality_ears': '3', 'quality_hair': '3', 'quality_neck': '3', 'facial_hair': '0.0', 'notes': None, 'race_common': 'black', 'gender_common': 'man'}",,,,,,,,,,,,,,,,,,,,,,,,,,,,,,,,,,,,,,,,,,,,,,,,,,,,,,,,,,,,,,,,,,,,,0.7519458532333374,"[0.7822886109352112, 0.8363229036331177]",,,,
13708,626f82051a371c538416b247,Chrome,1.0,main_task,0.0,2.0,chris,"5/2/2022, 12:02:29 AM",hgdn3jchvl76kthdexth,0.0-38.0,pilot_sona_afc2,37,woman,140,1.0,black,25R,D,1846,"['../stimuli/version1_gray_lm/id126_50L_U.png', '../stimuli/version1_gray_lm/id140_25R_D.png', '../stimuli/version1_gray_lm/id126_00C_C.png']",95231.0,0.0,47.0,18.0,encoding,woman,126,"[0, 2]",black,"['50L', '00C']","['U', 'C']",,"{'muct_id': '624', 'lighting': 'y', 'race_guess': 'b', 'gender_guess': 'w', 'quality': '3', 'quality_eyes': '3', 'quality_mouth': '3', 'quality_ears': '3', 'quality_hair': '3', 'quality_neck': '3', 'facial_hair': '0.0', 'notes': 'headband, earring', 'race_common': 'black', 'gender_common': 'woman'}","{'muct_id': '434', 'lighting': 'w', 'race_guess': 'b', 'gender_guess': 'w', 'quality': '3', 'quality_eyes': '3', 'quality_mouth': '3', 'quality_ears': '3', 'quality_hair': '3', 'quality_neck': '3', 'facial_hair': '0.0', 'notes': 'earrings', 'race_common': 'black', 'gender_common': 'woman'}",,,,,,,,,,,,,,,,,,,,,,,,,,,,,,,,,,,,,,,,,,,,,,,,,,,,,,,,,,,,,,,,,,,,,0.8608859777450562,"[0.8178471326828003, 0.7969012260437012]",,,,
13709,626f820a1a371c538416b248,Chrome,3.0,main_task,1.0,3.0,chris,"5/2/2022, 12:02:34 AM",hgdn3jchvl76kthdexth,0.0-40.0,pilot_sona_afc2,40,woman,123,2.0,white,25R,C,4334,"['../stimuli/version1_gray_lm/id088_00C_U.png', '../stimuli/version1_gray_lm/id088_50L_D.png', '../stimuli/version1_gray_lm/id123_25R_C.png']",99957.0,0.0,49.0,19.0,encoding,woman,088,"[0, 1]",white,"['00C', '50L']","['U', 'D']",,"{'muct_id': '76', 'lighting': 'q', 'race_guess': 'w', 'gender_guess': 'w', 'quality': '2', 'quality_eyes': '2', 'quality_mouth': '3', 'quality_ears': '2', 'quality_hair': '2', 'quality_neck': '3', 'facial_hair': '0.0', 'notes': 'hair', 'race_common': 'white', 'gender_common': 'woman'}","{'muct_id': '252', 'lighting': 't', 'race_guess': 'w', 'gender_guess': 'w', 'quality': '3', 'quality_eyes': '3', 'quality_mouth': '3', 'quality_ears': '3', 'quality_hair': '3', 'quality_neck': '3', 'facial_hair': '0.0', 'notes': 'hair', 'race_common': 'white', 'gender_common': 'woman'}",,,,,,,,,,,,,,,,,,,,,,,,,,,,,,,,,,,,,,,,,,,,,,,,,,,,,,,,,,,,,,,,,,,,,0.7788952589035034,"[0.8910120725631714, 0.8330171704292297]",,,,
13710,626f820c1a371c538416b249,Chrome,1.0,main_task,0.0,2.0,chris,"5/2/2022, 12:02:36 AM",hgdn3jchvl76kthdexth,0.0-42.0,pilot_sona_afc2,37,man,061,1.0,white,00C,C,1750,"['../stimuli/version1_gray_lm/id089_50R_U.png', '../stimuli/version1_gray_lm/id061_00C_C.png', '../stimuli/version1_gray_lm/id089_25L_D.png']",102203.0,0.0,51.0,20.0,encoding,man,089,"[0, 2]",white,"['50R', '25L']","['U', 'D']",,"{'muct_id': '89', 'lighting': 'r', 'race_guess': 'w', 'gender_guess': 'm', 'quality': '3', 'quality_eyes': '3', 'quality_mouth': '3', 'quality_ears': '3', 'quality_hair': '3', 'quality_neck': '3', 'facial_hair': '2.0', 'notes': None, 'race_common': 'white', 'gender_common': 'man'}","{'muct_id': '255', 'lighting': 't', 'race_guess': 'w', 'gender_guess': 'm', 'quality': '3', 'quality_eyes': '3', 'quality_mouth': '3', 'quality_ears': '3', 'quality_hair': '3', 'quality_neck': '3', 'facial_hair': '2.0', 'notes': None, 'race_common': 'white', 'gender_common': 'man'}",,,,,,,,,,,,,,,,,,,,,,,,,,,,,,,,,,,,,,,,,,,,,,,,,,,,,,,,,,,,,,,,,,,,,0.8612361550331116,"[0.8179581761360168, 0.8646520972251892]",,,,
13711,626f820e1a371c538416b24a,Chrome,2.0,main_task,1.0,2.0,chris,"5/2/2022, 12:02:38 AM",hgdn3jchvl76kthdexth,0.0-44.0,pilot_sona_afc2,39,man,052,1.0,white,25L,U,1200,"['../stimuli/version1_gray_lm/id002_25R_C.png', '../stimuli/version1_gray_lm/id052_25L_U.png', '../stimuli/version1_gray_lm/id002_00C_D.png']",103814.0,0.0,53.0,21.0,encoding,man,002,"[0, 2]",white,"['25R', '00C']","['C', 'D']",,"{'muct_id': '75', 'lighting': 'q', 'race_guess': 'w', 'gender_guess': 'm', 'quality': '3', 'quality_eyes': '3', 'quality_mouth': '3', 'quality_ears': '3', 'quality_hair': '3', 'quality_neck': '3', 'facial_hair': '4.0', 'notes': 'beard', 'race_common': 'white', 'gender_common': 'man'}","{'muct_id': '2', 'lighting': 'r', 'race_guess': 'w', 'gender_guess': 'm', 'quality': '3', 'quality_eyes': '3', 'quality_mouth': '3', 'quality_ears': '3', 'quality_hair': '3', 'quality_neck': '3', 'facial_hair': '2.0', 'notes': 'eyes', 'race_common': 'white', 'gender_common': 'man'}",,,,,,,,,,,,,,,,,,,,,,,,,,,,,,,,,,,,,,,,,,,,,,,,,,,,,,,,,,,,,,,,,,,,,0.802140474319458,"[0.8106972575187683, 0.8529975414276123]",,,,
13712,626f82101a371c538416b24b,Chrome,3.0,main_task,1.0,3.0,chris,"5/2/2022, 12:02:40 AM",hgdn3jchvl76kthdexth,0.0-46.0,pilot_sona_afc2,40,man,012,2.0,white,50L,U,1337,"['../stimuli/version1_gray_lm/id131_00C_D.png', '../stimuli/version1_gray_lm/id131_50R_C.png', '../stimuli/version1_gray_lm/id012_50L_U.png']",105555.0,0.0,55.0,22.0,encoding,man,131,"[0, 1]",white,"['00C', '50R']","['D', 'C']",,"{'muct_id': '12', 'lighting': 'q', 'race_guess': 'i', 'gender_guess': 'm', 'quality': '3', 'quality_eyes': '3', 'quality_mouth': '3', 'quality_ears': '3', 'quality_hair': '3', 'quality_neck': '3', 'facial_hair': '2.0', 'notes': None, 'race_common': 'white', 'gender_common': 'man'}","{'muct_id': '442', 'lighting': 'x', 'race_guess': 'w', 'gender_guess': 'm', 'quality': '3', 'quality_eyes': '3', 'quality_mouth': '3', 'quality_ears': '3', 'quality_hair': '3', 'quality_neck': '3', 'facial_hair': '2.0', 'notes': None, 'race_common': 'white', 'gender_common': 'man'}",,,,,,,,,,,,,,,,,,,,,,,,,,,,,,,,,,,,,,,,,,,,,,,,,,,,,,,,,,,,,,,,,,,,,0.8000251650810242,"[0.8538651466369629, 0.8158714771270752]",,,,
13713,626f82121a371c538416b24c,Chrome,3.0,main_task,1.0,3.0,chris,"5/2/2022, 12:02:42 AM",hgdn3jchvl76kthdexth,0.0-48.0,pilot_sona_afc2,40,man,119,2.0,black,50R,D,2023,"['../stimuli/version1_gray_lm/id072_00C_U.png', '../stimuli/version1_gray_lm/id072_25L_C.png', '../stimuli/version1_gray_lm/id119_50R_D.png']",108050.0,0.0,57.0,23.0,encoding,man,072,"[0, 1]",black,"['00C', '25L']","['U', 'C']",,"{'muct_id': '420', 'lighting': 'w', 'race_guess': 'b', 'gender_guess': 'm', 'quality': '3', 'quality_eyes': '3', 'quality_mouth': '3', 'quality_ears': '3', 'quality_hair': '3', 'quality_neck': '3', 'facial_hair': '0.0', 'notes': None, 'race_common': 'black', 'gender_common': 'man'}","{'muct_id': '224', 'lighting': 't', 'race_guess': 'u', 'gender_guess': 'm', 'quality': '3', 'quality_eyes': '3', 'quality_mouth': '3', 'quality_ears': '3', 'quality_hair': '3', 'quality_neck': '3', 'facial_hair': '0.0', 'notes': 'smile', 'race_common': 'black', 'gender_common': 'man'}",,,,,,,,,,,,,,,,,,,,,,,,,,,,,,,,,,,,,,,,,,,,,,,,,,,,,,,,,,,,,,,,,,,,,0.8421387672424316,"[0.8628833889961243, 0.8389443755149841]",,,,
13714,626f82141a371c538416b24d,Chrome,3.0,main_task,1.0,3.0,chris,"5/2/2022, 12:02:44 AM",hgdn3jchvl76kthdexth,0.0-50.0,pilot_sona_afc2,40,man,128,2.0,black,25L,C,1289,"['../stimuli/version1_gray_lm/id122_50R_U.png', '../stimuli/version1_gray_lm/id122_00C_D.png', '../stimuli/version1_gray_lm/id128_25L_C.png']",109795.0,0.0,59.0,24.0,encoding,man,122,"[0, 1]",black,"['50R', '00C']","['U', 'D']",,"{'muct_id': '436', 'lighting': 'w', 'race_guess': 'b', 'gender_guess': 'm', 'quality': '3', 'quality_eyes': '3', 'quality_mouth': '3', 'quality_ears': '3', 'quality_hair': '3', 'quality_neck': '3', 'facial_hair': '3.0', 'notes': 'beard', 'race_common': 'black', 'gender_common': 'man'}","{'muct_id': '425', 'lighting': 'x', 'race_guess': 'b', 'gender_guess': 'm', 'quality': '3', 'quality_eyes': '3', 'quality_mouth': '3', 'quality_ears': '3', 'quality_hair': '3', 'quality_neck': '3', 'facial_hair': '2.0', 'notes': None, 'race_common': 'black', 'gender_common': 'man'}",,,,,,,,,,,,,,,,,,,,,,,,,,,,,,,,,,,,,,,,,,,,,,,,,,,,,,,,,,,,,,,,,,,,,0.8372965455055237,"[0.8166454434394836, 0.8157645463943481]",,,,
13715,626f82161a371c538416b24e,Chrome,3.0,main_task,1.0,3.0,chris,"5/2/2022, 12:02:46 AM",hgdn3jchvl76kthdexth,0.0-52.0,pilot_sona_afc2,40,man,055,2.0,black,25R,D,1465,"['../stimuli/version1_gray_lm/id098_00C_C.png', '../stimuli/version1_gray_lm/id098_50L_U.png', '../stimuli/version1_gray_lm/id055_25R_D.png']",111597.0,0.0,61.0,25.0,encoding,man,098,"[0, 1]",black,"['00C', '50L']","['C', 'U']",,"{'muct_id': '81', 'lighting': 'q', 'race_guess': 'b', 'gender_guess': 'm', 'quality': '3', 'quality_eyes': '3', 'quality_mouth': '3', 'quality_ears': '3', 'quality_hair': '3', 'quality_neck': '3', 'facial_hair': '0.0', 'notes': None, 'race_common': 'black', 'gender_common': 'man'}","{'muct_id': '274', 'lighting': 't', 'race_guess': 'b', 'gender_guess': 'm', 'quality': '3', 'quality_eyes': '3', 'quality_mouth': '3', 'quality_ears': '3', 'quality_hair': '3', 'quality_neck': '3', 'facial_hair': '4.0', 'notes': None, 'race_common': 'black', 'gender_common': 'man'}",,,,,,,,,,,,,,,,,,,,,,,,,,,,,,,,,,,,,,,,,,,,,,,,,,,,,,,,,,,,,,,,,,,,,0.8515849113464355,"[0.8472102880477905, 0.7912300825119019]",,,,
13716,626f821a1a371c538416b24f,Chrome,2.0,main_task,1.0,2.0,chris,"5/2/2022, 12:02:50 AM",hgdn3jchvl76kthdexth,0.0-54.0,pilot_sona_afc2,39,man,074,1.0,white,25R,D,4372,"['../stimuli/version1_gray_lm/id149_25L_U.png', '../stimuli/version1_gray_lm/id074_25R_D.png', '../stimuli/version1_gray_lm/id149_00C_C.png']",116280.0,0.0,63.0,26.0,encoding,man,149,"[0, 2]",white,"['25L', '00C']","['U', 'C']",,"{'muct_id': '229', 'lighting': 't', 'race_guess': 'w', 'gender_guess': 'm', 'quality': '3', 'quality_eyes': '3', 'quality_mouth': '3', 'quality_ears': '3', 'quality_hair': '3', 'quality_neck': '3', 'facial_hair': '2.0', 'notes': 'mouth', 'race_common': 'white', 'gender_common': 'man'}","{'muct_id': '416', 'lighting': 'w', 'race_guess': 'w', 'gender_guess': 'm', 'quality': '3', 'quality_eyes': '3', 'quality_mouth': '3', 'quality_ears': '3', 'quality_hair': '3', 'quality_neck': '3', 'facial_hair': '2.0', 'notes': None, 'race_common': 'white', 'gender_common': 'man'}",,,,,,,,,,,,,,,,,,,,,,,,,,,,,,,,,,,,,,,,,,,,,,,,,,,,,,,,,,,,,,,,,,,,,0.8224310278892517,"[0.7955148816108704, 0.7883397340774536]",,,,
13717,626f821d1a371c538416b250,Chrome,2.0,main_task,0.0,1.0,chris,"5/2/2022, 12:02:53 AM",hgdn3jchvl76kthdexth,0.0-56.0,pilot_sona_afc2,39,woman,120,0.0,black,25R,D,2199,"['../stimuli/version1_gray_lm/id120_25R_D.png', '../stimuli/version1_gray_lm/id060_00C_U.png', '../stimuli/version1_gray_lm/id060_25L_C.png']",118837.0,0.0,65.0,27.0,encoding,woman,060,"[1, 2]",black,"['00C', '25L']","['U', 'C']",,"{'muct_id': '421', 'lighting': 'x', 'race_guess': 'b', 'gender_guess': 'w', 'quality': '3', 'quality_eyes': '3', 'quality_mouth': '3', 'quality_ears': '3', 'quality_hair': '3', 'quality_neck': '3', 'facial_hair': '0.0', 'notes': None, 'race_common': 'black', 'gender_common': 'woman'}","{'muct_id': '88', 'lighting': 'q', 'race_guess': 'b', 'gender_guess': 'w', 'quality': '3', 'quality_eyes': '3', 'quality_mouth': '3', 'quality_ears': '3', 'quality_hair': '3', 'quality_neck': '3', 'facial_hair': '0.0', 'notes': 'earrings', 'race_common': 'black', 'gender_common': 'woman'}",,,,,,,,,,,,,,,,,,,,,,,,,,,,,,,,,,,,,,,,,,,,,,,,,,,,,,,,,,,,,,,,,,,,,0.8439685702323914,"[0.8150917291641235, 0.8625316619873047]",,,,
13718,626f821f1a371c538416b251,Chrome,1.0,main_task,1.0,1.0,chris,"5/2/2022, 12:02:55 AM",hgdn3jchvl76kthdexth,0.0-58.0,pilot_sona_afc2,37,man,156,0.0,white,00C,U,1751,"['../stimuli/version1_gray_lm/id156_00C_U.png', '../stimuli/version1_gray_lm/id099_50R_D.png', '../stimuli/version1_gray_lm/id099_50L_C.png']",120890.0,0.0,67.0,28.0,encoding,man,099,"[1, 2]",white,"['50R', '50L']","['D', 'C']",,"{'muct_id': '258', 'lighting': 'u', 'race_guess': 'w', 'gender_guess': 'm', 'quality': '2', 'quality_eyes': '3', 'quality_mouth': '3', 'quality_ears': '3', 'quality_hair': '2', 'quality_neck': '3', 'facial_hair': '0.0', 'notes': 'hair', 'race_common': 'white', 'gender_common': 'man'}","{'muct_id': '278', 'lighting': 't', 'race_guess': 'w', 'gender_guess': 'm', 'quality': '3', 'quality_eyes': '3', 'quality_mouth': '3', 'quality_ears': '3', 'quality_hair': '3', 'quality_neck': '3', 'facial_hair': '0.0', 'notes': None, 'race_common': 'white', 'gender_common': 'man'}",,,,,,,,,,,,,,,,,,,,,,,,,,,,,,,,,,,,,,,,,,,,,,,,,,,,,,,,,,,,,,,,,,,,,0.8364711403846741,"[0.811389684677124, 0.8133437037467957]",,,,
13719,626f82231a371c538416b252,Chrome,1.0,main_task,0.0,3.0,chris,"5/2/2022, 12:02:59 AM",hgdn3jchvl76kthdexth,0.0-60.0,pilot_sona_afc2,37,man,093,2.0,white,25R,D,4170,"['../stimuli/version1_gray_lm/id143_00C_C.png', '../stimuli/version1_gray_lm/id143_50L_U.png', '../stimuli/version1_gray_lm/id093_25R_D.png']",125404.0,0.0,69.0,29.0,encoding,man,143,"[0, 1]",white,"['00C', '50L']","['C', 'U']",,"{'muct_id': '263', 'lighting': 'u', 'race_guess': 'w', 'gender_guess': 'm', 'quality': '3', 'quality_eyes': '3', 'quality_mouth': '3', 'quality_ears': '3', 'quality_hair': '3', 'quality_neck': '3', 'facial_hair': '2.0', 'notes': None, 'race_common': 'white', 'gender_common': 'man'}","{'muct_id': '90', 'lighting': 'q', 'race_guess': 'u', 'gender_guess': 'm', 'quality': '2', 'quality_eyes': '3', 'quality_mouth': '3', 'quality_ears': '2', 'quality_hair': '3', 'quality_neck': '3', 'facial_hair': '4.0', 'notes': 'beard', 'race_common': 'white', 'gender_common': 'man'}",,,,,,,,,,,,,,,,,,,,,,,,,,,,,,,,,,,,,,,,,,,,,,,,,,,,,,,,,,,,,,,,,,,,,0.8248165845870972,"[0.8794283866882324, 0.8044999837875366]",,,,
13720,626f82261a371c538416b253,Chrome,2.0,main_task,1.0,2.0,chris,"5/2/2022, 12:03:02 AM",hgdn3jchvl76kthdexth,0.0-62.0,pilot_sona_afc2,39,man,137,1.0,black,00C,D,1750,"['../stimuli/version1_gray_lm/id040_50L_C.png', '../stimuli/version1_gray_lm/id137_00C_D.png', '../stimuli/version1_gray_lm/id040_50R_U.png']",127668.0,0.0,71.0,30.0,encoding,man,040,"[0, 2]",black,"['50L', '50R']","['C', 'U']",,"{'muct_id': '617', 'lighting': 'y', 'race_guess': 'b', 'gender_guess': 'w', 'quality': '3', 'quality_eyes': '3', 'quality_mouth': '3', 'quality_ears': '3', 'quality_hair': '3', 'quality_neck': '3', 'facial_hair': '0.0', 'notes': 'mouth', 'race_common': 'black', 'gender_common': 'man'}","{'muct_id': '55', 'lighting': 'r', 'race_guess': 'b', 'gender_guess': 'm', 'quality': '3', 'quality_eyes': '3', 'quality_mouth': '3', 'quality_ears': '3', 'quality_hair': '3', 'quality_neck': '3', 'facial_hair': '3.0', 'notes': 'beard', 'race_common': 'black', 'gender_common': 'man'}",,,,,,,,,,,,,,,,,,,,,,,,,,,,,,,,,,,,,,,,,,,,,,,,,,,,,,,,,,,,,,,,,,,,,0.8765964508056641,"[0.8222073316574097, 0.8430862426757812]",,,,
13721,626f82281a371c538416b254,Chrome,3.0,main_task,1.0,3.0,chris,"5/2/2022, 12:03:04 AM",hgdn3jchvl76kthdexth,0.0-64.0,pilot_sona_afc2,40,man,100,2.0,white,00C,C,1473,"['../stimuli/version1_gray_lm/id146_50R_D.png', '../stimuli/version1_gray_lm/id146_50L_U.png', '../stimuli/version1_gray_lm/id100_00C_C.png']",129488.0,0.0,73.0,31.0,encoding,man,146,"[0, 1]",white,"['50R', '50L']","['D', 'U']",,"{'muct_id': '280', 'lighting': 'u', 'race_guess': 'w', 'gender_guess': 'm', 'quality': '3', 'quality_eyes': '3', 'quality_mouth': '3', 'quality_ears': '3', 'quality_hair': '3', 'quality_neck': '3', 'facial_hair': '0.0', 'notes': None, 'race_common': 'white', 'gender_common': 'man'}","{'muct_id': '254', 'lighting': 'v', 'race_guess': 'w', 'gender_guess': 'm', 'quality': '2', 'quality_eyes': '2', 'quality_mouth': '3', 'quality_ears': '3', 'quality_hair': '2', 'quality_neck': '3', 'facial_hair': '0.0', 'notes': 'hair', 'race_common': 'white', 'gender_common': 'man'}",,,,,,,,,,,,,,,,,,,,,,,,,,,,,,,,,,,,,,,,,,,,,,,,,,,,,,,,,,,,,,,,,,,,,0.8561732172966003,"[0.8088200688362122, 0.763433575630188]",,,,
13722,626f822a1a371c538416b255,Chrome,1.0,main_task,1.0,1.0,chris,"5/2/2022, 12:03:06 AM",hgdn3jchvl76kthdexth,0.0-66.0,pilot_sona_afc2,37,woman,103,0.0,black,25L,U,1729,"['../stimuli/version1_gray_lm/id103_25L_U.png', '../stimuli/version1_gray_lm/id127_50R_C.png', '../stimuli/version1_gray_lm/id127_00C_D.png']",131543.0,0.0,75.0,32.0,encoding,woman,127,"[1, 2]",black,"['50R', '00C']","['C', 'D']",,"{'muct_id': '285', 'lighting': 'v', 'race_guess': 'b', 'gender_guess': 'w', 'quality': '3', 'quality_eyes': '3', 'quality_mouth': '3', 'quality_ears': '3', 'quality_hair': '3', 'quality_neck': '3', 'facial_hair': '0.0', 'notes': 'earrings', 'race_common': 'black', 'gender_common': 'woman'}","{'muct_id': '435', 'lighting': 'x', 'race_guess': 'b', 'gender_guess': 'w', 'quality': '3', 'quality_eyes': '3', 'quality_mouth': '3', 'quality_ears': '3', 'quality_hair': '3', 'quality_neck': '3', 'facial_hair': '0.0', 'notes': 'bandana', 'race_common': 'black', 'gender_common': 'woman'}",,,,,,,,,,,,,,,,,,,,,,,,,,,,,,,,,,,,,,,,,,,,,,,,,,,,,,,,,,,,,,,,,,,,,0.8017293214797974,"[0.8119016885757446, 0.8346514701843262]",,,,
13723,626f822c1a371c538416b256,Chrome,2.0,main_task,1.0,2.0,chris,"5/2/2022, 12:03:08 AM",hgdn3jchvl76kthdexth,0.0-68.0,pilot_sona_afc2,39,woman,153,1.0,white,00C,U,1733,"['../stimuli/version1_gray_lm/id148_50R_D.png', '../stimuli/version1_gray_lm/id153_00C_U.png', '../stimuli/version1_gray_lm/id148_25L_C.png']",133564.0,0.0,77.0,33.0,encoding,woman,148,"[0, 2]",white,"['50R', '25L']","['D', 'C']",,"{'muct_id': '437', 'lighting': 'x', 'race_guess': 'w', 'gender_guess': 'w', 'quality': '3', 'quality_eyes': '3', 'quality_mouth': '3', 'quality_ears': '3', 'quality_hair': '3', 'quality_neck': '3', 'facial_hair': '0.0', 'notes': 'hair', 'race_common': 'white', 'gender_common': 'woman'}","{'muct_id': '415', 'lighting': 'w', 'race_guess': 'w', 'gender_guess': 'w', 'quality': '3', 'quality_eyes': '3', 'quality_mouth': '3', 'quality_ears': '3', 'quality_hair': '3', 'quality_neck': '3', 'facial_hair': '0.0', 'notes': None, 'race_common': 'white', 'gender_common': 'woman'}",,,,,,,,,,,,,,,,,,,,,,,,,,,,,,,,,,,,,,,,,,,,,,,,,,,,,,,,,,,,,,,,,,,,,0.847693920135498,"[0.8246163129806519, 0.8130893111228943]",,,,
13724,626f822f1a371c538416b257,Chrome,3.0,main_task,1.0,3.0,chris,"5/2/2022, 12:03:11 AM",hgdn3jchvl76kthdexth,0.0-70.0,pilot_sona_afc2,40,man,121,2.0,black,00C,C,2995,"['../stimuli/version1_gray_lm/id132_25L_D.png', '../stimuli/version1_gray_lm/id132_25R_U.png', '../stimuli/version1_gray_lm/id121_00C_C.png']",136803.0,0.0,79.0,34.0,encoding,man,132,"[0, 1]",black,"['25L', '25R']","['D', 'U']",,"{'muct_id': '423', 'lighting': 'w', 'race_guess': 'b', 'gender_guess': 'm', 'quality': '3', 'quality_eyes': '3', 'quality_mouth': '3', 'quality_ears': '3', 'quality_hair': '3', 'quality_neck': '3', 'facial_hair': '1.0', 'notes': None, 'race_common': 'black', 'gender_common': 'man'}","{'muct_id': '450', 'lighting': 'w', 'race_guess': 'b', 'gender_guess': 'm', 'quality': '3', 'quality_eyes': '3', 'quality_mouth': '3', 'quality_ears': '3', 'quality_hair': '3', 'quality_neck': '3', 'facial_hair': '4.0', 'notes': 'mouth', 'race_common': 'black', 'gender_common': 'man'}",,,,,,,,,,,,,,,,,,,,,,,,,,,,,,,,,,,,,,,,,,,,,,,,,,,,,,,,,,,,,,,,,,,,,0.8360601663589478,"[0.8537462949752808, 0.8107916712760925]",,,,
13725,626f82311a371c538416b258,Chrome,3.0,main_task,1.0,3.0,chris,"5/2/2022, 12:03:13 AM",hgdn3jchvl76kthdexth,0.0-72.0,pilot_sona_afc2,40,man,057,2.0,black,00C,U,1742,"['../stimuli/version1_gray_lm/id001_50R_C.png', '../stimuli/version1_gray_lm/id001_50L_D.png', '../stimuli/version1_gray_lm/id057_00C_U.png']",138774.0,0.0,81.0,35.0,encoding,man,001,"[0, 1]",black,"['50R', '50L']","['C', 'D']",,"{'muct_id': '83', 'lighting': 'r', 'race_guess': 'b', 'gender_guess': 'm', 'quality': '3', 'quality_eyes': '3', 'quality_mouth': '3', 'quality_ears': '3', 'quality_hair': '3', 'quality_neck': '3', 'facial_hair': '3.0', 'notes': None, 'race_common': 'black', 'gender_common': 'man'}","{'muct_id': '1', 'lighting': 'q', 'race_guess': 'b', 'gender_guess': 'm', 'quality': '3', 'quality_eyes': '3', 'quality_mouth': '3', 'quality_ears': '3', 'quality_hair': '3', 'quality_neck': '3', 'facial_hair': '1.0', 'notes': None, 'race_common': 'black', 'gender_common': 'man'}",,,,,,,,,,,,,,,,,,,,,,,,,,,,,,,,,,,,,,,,,,,,,,,,,,,,,,,,,,,,,,,,,,,,,0.8030478954315186,"[0.8199172019958496, 0.8245030045509338]",,,,
13726,626f82341a371c538416b259,Chrome,1.0,main_task,0.0,2.0,chris,"5/2/2022, 12:03:16 AM",hgdn3jchvl76kthdexth,0.0-74.0,pilot_sona_afc2,37,woman,114,1.0,white,50L,C,2723,"['../stimuli/version1_gray_lm/id084_00C_D.png', '../stimuli/version1_gray_lm/id114_50L_C.png', '../stimuli/version1_gray_lm/id084_25R_U.png']",141721.0,0.0,83.0,36.0,encoding,woman,084,"[0, 2]",white,"['00C', '25R']","['D', 'U']",,"{'muct_id': '410', 'lighting': 'w', 'race_guess': 'w', 'gender_guess': 'w', 'quality': '3', 'quality_eyes': '3', 'quality_mouth': '3', 'quality_ears': '3', 'quality_hair': '3', 'quality_neck': '3', 'facial_hair': '0.0', 'notes': 'makeup mouth', 'race_common': 'white', 'gender_common': 'woman'}","{'muct_id': '248', 'lighting': 'u', 'race_guess': 'w', 'gender_guess': 'w', 'quality': '3', 'quality_eyes': '3', 'quality_mouth': '3', 'quality_ears': '3', 'quality_hair': '3', 'quality_neck': '3', 'facial_hair': '0.0', 'notes': None, 'race_common': 'white', 'gender_common': 'woman'}",,,,,,,,,,,,,,,,,,,,,,,,,,,,,,,,,,,,,,,,,,,,,,,,,,,,,,,,,,,,,,,,,,,,,0.8277390599250793,"[0.8690771460533142, 0.8210078477859497]",,,,
13727,626f82361a371c538416b25a,Chrome,1.0,main_task,1.0,1.0,chris,"5/2/2022, 12:03:18 AM",hgdn3jchvl76kthdexth,0.0-76.0,pilot_sona_afc2,37,woman,022,0.0,black,50L,C,1821,"['../stimuli/version1_gray_lm/id022_50L_C.png', '../stimuli/version1_gray_lm/id077_50R_U.png', '../stimuli/version1_gray_lm/id077_00C_D.png']",143847.0,0.0,85.0,37.0,encoding,woman,077,"[1, 2]",black,"['50R', '00C']","['U', 'D']",,"{'muct_id': '26', 'lighting': 'q', 'race_guess': 'b', 'gender_guess': 'w', 'quality': '3', 'quality_eyes': '3', 'quality_mouth': '3', 'quality_ears': '3', 'quality_hair': '3', 'quality_neck': '3', 'facial_hair': '0.0', 'notes': 'earrings', 'race_common': 'black', 'gender_common': 'woman'}","{'muct_id': '235', 'lighting': 'u', 'race_guess': 'b', 'gender_guess': 'w', 'quality': '3', 'quality_eyes': '3', 'quality_mouth': '3', 'quality_ears': '3', 'quality_hair': '3', 'quality_neck': '3', 'facial_hair': '0.0', 'notes': 'earrings', 'race_common': 'black', 'gender_common': 'woman'}",,,,,,,,,,,,,,,,,,,,,,,,,,,,,,,,,,,,,,,,,,,,,,,,,,,,,,,,,,,,,,,,,,,,,0.8221736550331116,"[0.8219946026802063, 0.8701415061950684]",,,,
13728,626f82391a371c538416b25b,Chrome,3.0,main_task,0.0,2.0,chris,"5/2/2022, 12:03:21 AM",hgdn3jchvl76kthdexth,0.0-78.0,pilot_sona_afc2,40,man,034,1.0,white,25L,C,2220,"['../stimuli/version1_gray_lm/id092_25R_U.png', '../stimuli/version1_gray_lm/id034_25L_C.png', '../stimuli/version1_gray_lm/id092_00C_D.png']",147014.0,0.0,87.0,38.0,encoding,man,092,"[0, 2]",white,"['25R', '00C']","['U', 'D']",,"{'muct_id': '45', 'lighting': 'q', 'race_guess': 'w', 'gender_guess': 'm', 'quality': '3', 'quality_eyes': '3', 'quality_mouth': '3', 'quality_ears': '3', 'quality_hair': '3', 'quality_neck': '3', 'facial_hair': '0.0', 'notes': None, 'race_common': 'white', 'gender_common': 'man'}","{'muct_id': '261', 'lighting': 'v', 'race_guess': 'w', 'gender_guess': 'm', 'quality': '2', 'quality_eyes': '2', 'quality_mouth': '3', 'quality_ears': '3', 'quality_hair': '3', 'quality_neck': '3', 'facial_hair': '0.0', 'notes': None, 'race_common': 'white', 'gender_common': 'man'}",,,,,,,,,,,,,,,,,,,,,,,,,,,,,,,,,,,,,,,,,,,,,,,,,,,,,,,,,,,,,,,,,,,,,0.8475770950317383,"[0.7671474814414978, 0.8300182223320007]",,,,
13729,626f823b1a371c538416b25c,Chrome,1.0,main_task,0.0,2.0,chris,"5/2/2022, 12:03:23 AM",hgdn3jchvl76kthdexth,0.0-80.0,pilot_sona_afc2,37,man,081,1.0,black,25L,C,1399,"['../stimuli/version1_gray_lm/id004_50R_D.png', '../stimuli/version1_gray_lm/id081_25L_C.png', '../stimuli/version1_gray_lm/id004_00C_U.png']",148709.0,0.0,89.0,39.0,encoding,man,004,"[0, 2]",black,"['50R', '00C']","['D', 'U']",,"{'muct_id': '241', 'lighting': 't', 'race_guess': 'u', 'gender_guess': 'm', 'quality': '3', 'quality_eyes': '3', 'quality_mouth': '3', 'quality_ears': '3', 'quality_hair': '3', 'quality_neck': '3', 'facial_hair': '1.0', 'notes': 'mouth', 'race_common': 'black', 'gender_common': 'man'}","{'muct_id': '4', 'lighting': 'q', 'race_guess': 'b', 'gender_guess': 'm', 'quality': '3', 'quality_eyes': '3', 'quality_mouth': '3', 'quality_ears': '3', 'quality_hair': '3', 'quality_neck': '3', 'facial_hair': '2.0', 'notes': None, 'race_common': 'black', 'gender_common': 'man'}",,,,,,,,,,,,,,,,,,,,,,,,,,,,,,,,,,,,,,,,,,,,,,,,,,,,,,,,,,,,,,,,,,,,,0.8626909852027893,"[0.8527190089225769, 0.8110041618347168]",,,,
13730,626f823d1a371c538416b25d,Chrome,2.0,main_task,0.0,1.0,chris,"5/2/2022, 12:03:25 AM",hgdn3jchvl76kthdexth,0.0-82.0,pilot_sona_afc2,39,man,037,0.0,white,00C,C,1982,"['../stimuli/version1_gray_lm/id037_00C_C.png', '../stimuli/version1_gray_lm/id053_25R_U.png', '../stimuli/version1_gray_lm/id053_25L_D.png']",150953.0,0.0,91.0,40.0,encoding,man,053,"[1, 2]",white,"['25R', '25L']","['U', 'D']",,"{'muct_id': '48', 'lighting': 'w', 'race_guess': 'w', 'gender_guess': 'm', 'quality': '3', 'quality_eyes': '3', 'quality_mouth': '3', 'quality_ears': '3', 'quality_hair': '3', 'quality_neck': '3', 'facial_hair': '0.0', 'notes': None, 'race_common': 'white', 'gender_common': 'man'}","{'muct_id': '79', 'lighting': 'r', 'race_guess': 'i', 'gender_guess': 'm', 'quality': '2', 'quality_eyes': '2', 'quality_mouth': '3', 'quality_ears': '3', 'quality_hair': '2', 'quality_neck': '3', 'facial_hair': '0.0', 'notes': None, 'race_common': 'white', 'gender_common': 'man'}",,,,,,,,,,,,,,,,,,,,,,,,,,,,,,,,,,,,,,,,,,,,,,,,,,,,,,,,,,,,,,,,,,,,,0.8415021896362305,"[0.8097671866416931, 0.8599304556846619]",,,,
13731,626f823f1a371c538416b25e,Chrome,,main_task,,,chris,"5/2/2022, 12:03:27 AM",,0.0-84.0,pilot_sona_afc2,,,,,,,,1893.5,"<p style='font-size: 150%'><b>You have finished Part 1!</b></p><p>On this section, you averaged <b>70% accuracy</b>.</p><p>Click 'Next' to continue to Part 2.</p>",153162.0,,93.0,,bonus_update,,,,,,,,,,0,encoding,0.0,,,,,,,,,,,,,,,,,,,,,,,,,,,,,,,,,,,,,,,,,,,,,,,,,,,,,,,,,,,,,,,,,,,,,,,
13732,626f824a1a371c538416b25f,Chrome,2.0,main_task,1.0,2.0,chris,"5/2/2022, 12:03:38 AM",hgdn3jchvl76kthdexth,0.0-86.0-0.0,pilot_sona_afc2,39,,,883.0,,,,1967,"['../stimuli/objectome/1218.jpeg', '../stimuli/objectome/883.jpeg', '../stimuli/objectome/1219.jpeg']",164098.0,0.0,95.0,1.0,filler,,,,,,,,,,,,,animals,ELEPHANT_M,animals,ELEPHANT_M,within,"{'1': None, '2': None, '3': None}",animals,"[1218, 1219]",TURTLE_L,V3,,,,,,,,,,,,,,,,,,,,,,,,,,,,,,,,,,,,,,,,,,,,,,,,,,,,,,,,,,,,,
13733,626f824c1a371c538416b260,Chrome,1.0,main_task,1.0,1.0,chris,"5/2/2022, 12:03:40 AM",hgdn3jchvl76kthdexth,0.0-87.0-0.0,pilot_sona_afc2,37,,,2766.0,,,,1513,"['../stimuli/objectome/2766.jpeg', '../stimuli/objectome/976.jpeg', '../stimuli/objectome/970.jpeg']",166225.0,0.0,97.0,2.0,filler,,,,,,,,,,,,,animals,hedgehog,animals,hedgehog,within,"{'1': None, '2': None, '3': None}",animals,"[976, 970]",LIONESS,V3,,,,,,,,,,,,,,,,,,,,,,,,,,,,,,,,,,,,,,,,,,,,,,,,,,,,,,,,,,,,,
13734,626f824f1a371c538416b261,Chrome,2.0,main_task,1.0,2.0,chris,"5/2/2022, 12:03:43 AM",hgdn3jchvl76kthdexth,0.0-88.0-0.0,pilot_sona_afc2,39,,,2089.0,,,,2386,"['../stimuli/objectome/2139.jpeg', '../stimuli/objectome/2089.jpeg', '../stimuli/objectome/2153.jpeg']",169086.0,0.0,99.0,3.0,filler,,,,,,,,,,,,,animals,bear,animals,bear,within,"{'1': None, '2': None, '3': None}",animals,"[2139, 2153]",blCow,V3,,,,,,,,,,,,,,,,,,,,,,,,,,,,,,,,,,,,,,,,,,,,,,,,,,,,,,,,,,,,,
13735,626f82541a371c538416b262,Chrome,2.0,main_task,1.0,2.0,chris,"5/2/2022, 12:03:48 AM",hgdn3jchvl76kthdexth,0.0-90.0,pilot_sona_afc2,39,,,892.0,,,,1563,"['../stimuli/objectome/954.jpeg', '../stimuli/objectome/892.jpeg', '../stimuli/objectome/935.jpeg']",173501.0,0.0,102.0,4.0,filler,,,,,,,,,,,,,animals,ELEPHANT_M,animals,ELEPHANT_M,within,"{'1': None, '2': None, '3': None}",animals,"[954, 935]",GORILLA,V3,,,,,,,,,,,,,,,,,,,,,,,,,,,,,,,,,,,,,,,,,,,,,,,,,,,,,,,,,,,,,
13736,626f82571a371c538416b263,Chrome,2.0,main_task,1.0,2.0,chris,"5/2/2022, 12:03:51 AM",hgdn3jchvl76kthdexth,0.0-92.0,pilot_sona_afc2,39,,,1873.0,,,,2650,"['../stimuli/objectome/2416.jpeg', '../stimuli/objectome/1873.jpeg', '../stimuli/objectome/2401.jpeg']",176606.0,0.0,104.0,5.0,filler,,,,,,,,,,,,,planes,_19_flyingBoat,planes,_19_flyingBoat,within,"{'1': None, '2': None, '3': None}",planes,"[2416, 2401]",f16,V3,,,,,,,,,,,,,,,,,,,,,,,,,,,,,,,,,,,,,,,,,,,,,,,,,,,,,,,,,,,,,
13737,626f82581a371c538416b264,Chrome,2.0,main_task,1.0,2.0,chris,"5/2/2022, 12:03:52 AM",hgdn3jchvl76kthdexth,0.0-94.0,pilot_sona_afc2,39,,,1864.0,,,,1513,"['../stimuli/objectome/2845.jpeg', '../stimuli/objectome/1864.jpeg', '../stimuli/objectome/2851.jpeg']",178449.0,0.0,106.0,6.0,filler,,,,,,,,,,,,,planes,_19_flyingBoat,planes,_19_flyingBoat,within,"{'1': None, '2': None, '3': None}",planes,"[2845, 2851]",mig29,V3,,,,,,,,,,,,,,,,,,,,,,,,,,,,,,,,,,,,,,,,,,,,,,,,,,,,,,,,,,,,,
13738,626f825a1a371c538416b265,Chrome,2.0,main_task,0.0,1.0,chris,"5/2/2022, 12:03:54 AM",hgdn3jchvl76kthdexth,0.0-96.0,pilot_sona_afc2,39,,,1553.0,,,,1518,"['../stimuli/objectome/1553.jpeg', '../stimuli/objectome/1412.jpeg', '../stimuli/objectome/1429.jpeg']",180190.0,0.0,108.0,7.0,filler,,,,,,,,,,,,,chairs,_011,chairs,_031,within,"{'1': None, '2': None, '3': None}",chairs,"[1412, 1429]",_011,V3,,,,,,,,,,,,,,,,,,,,,,,,,,,,,,,,,,,,,,,,,,,,,,,,,,,,,,,,,,,,,
13739,626f825c1a371c538416b266,Chrome,3.0,main_task,1.0,3.0,chris,"5/2/2022, 12:03:56 AM",hgdn3jchvl76kthdexth,0.0-98.0,pilot_sona_afc2,40,,,204.0,,,,1069,"['../stimuli/objectome/163.jpeg', '../stimuli/objectome/164.jpeg', '../stimuli/objectome/204.jpeg']",181519.0,0.0,110.0,8.0,filler,,,,,,,,,,,,,chairs,_014,chairs,_014,within,"{'1': None, '2': None, '3': None}",chairs,"[163, 164]",_004,V0,,,,,,,,,,,,,,,,,,,,,,,,,,,,,,,,,,,,,,,,,,,,,,,,,,,,,,,,,,,,,
13740,626f825e1a371c538416b267,Chrome,3.0,main_task,1.0,3.0,chris,"5/2/2022, 12:03:58 AM",hgdn3jchvl76kthdexth,0.0-100.0,pilot_sona_afc2,40,,,1504.0,,,,1813,"['../stimuli/objectome/2983.jpeg', '../stimuli/objectome/2993.jpeg', '../stimuli/objectome/1504.jpeg']",183631.0,0.0,112.0,9.0,filler,,,,,,,,,,,,,planes,_01_Airliner_2jetEngines,planes,_01_Airliner_2jetEngines,within,"{'1': None, '2': None, '3': None}",planes,"[2983, 2993]",rdbarren,V3,,,,,,,,,,,,,,,,,,,,,,,,,,,,,,,,,,,,,,,,,,,,,,,,,,,,,,,,,,,,,
13741,626f82601a371c538416b268,Chrome,2.0,main_task,1.0,2.0,chris,"5/2/2022, 12:04:00 AM",hgdn3jchvl76kthdexth,0.0-102.0,pilot_sona_afc2,39,,,1430.0,,,,2143,"['../stimuli/objectome/1369.jpeg', '../stimuli/objectome/1430.jpeg', '../stimuli/objectome/1383.jpeg']",186052.0,0.0,114.0,10.0,filler,,,,,,,,,,,,,chairs,_011,chairs,_011,within,"{'1': None, '2': None, '3': None}",chairs,"[1369, 1383]",_010,V3,,,,,,,,,,,,,,,,,,,,,,,,,,,,,,,,,,,,,,,,,,,,,,,,,,,,,,,,,,,,,
13742,626f82621a371c538416b269,Chrome,3.0,main_task,1.0,3.0,chris,"5/2/2022, 12:04:02 AM",hgdn3jchvl76kthdexth,0.0-104.0,pilot_sona_afc2,40,,,3017.0,,,,1833,"['../stimuli/objectome/1511.jpeg', '../stimuli/objectome/1488.jpeg', '../stimuli/objectome/3017.jpeg']",188164.0,0.0,116.0,11.0,filler,,,,,,,,,,,,,planes,sopwith,planes,sopwith,within,"{'1': None, '2': None, '3': None}",planes,"[1511, 1488]",_01_Airliner_2jetEngines,V3,,,,,,,,,,,,,,,,,,,,,,,,,,,,,,,,,,,,,,,,,,,,,,,,,,,,,,,,,,,,,
13743,626f82641a371c538416b26a,Chrome,1.0,main_task,1.0,1.0,chris,"5/2/2022, 12:04:04 AM",hgdn3jchvl76kthdexth,0.0-106.0,pilot_sona_afc2,37,,,886.0,,,,1878,"['../stimuli/objectome/886.jpeg', '../stimuli/objectome/997.jpeg', '../stimuli/objectome/973.jpeg']",190382.0,0.0,118.0,12.0,filler,,,,,,,,,,,,,animals,ELEPHANT_M,animals,ELEPHANT_M,within,"{'1': None, '2': None, '3': None}",animals,"[997, 973]",LIONESS,V3,,,,,,,,,,,,,,,,,,,,,,,,,,,,,,,,,,,,,,,,,,,,,,,,,,,,,,,,,,,,,
13744,626f82671a371c538416b26b,Chrome,1.0,main_task,1.0,1.0,chris,"5/2/2022, 12:04:07 AM",hgdn3jchvl76kthdexth,0.0-108.0,pilot_sona_afc2,37,,,1286.0,,,,2717,"['../stimuli/objectome/1286.jpeg', '../stimuli/objectome/1475.jpeg', '../stimuli/objectome/1441.jpeg']",193393.0,0.0,120.0,13.0,filler,,,,,,,,,,,,,chairs,_004,chairs,_004,within,"{'1': None, '2': None, '3': None}",chairs,"[1475, 1441]",_014,V3,,,,,,,,,,,,,,,,,,,,,,,,,,,,,,,,,,,,,,,,,,,,,,,,,,,,,,,,,,,,,
13745,626f82691a371c538416b26c,Chrome,1.0,main_task,1.0,1.0,chris,"5/2/2022, 12:04:09 AM",hgdn3jchvl76kthdexth,0.0-110.0,pilot_sona_afc2,37,,,1540.0,,,,1337,"['../stimuli/objectome/1540.jpeg', '../stimuli/objectome/1261.jpeg', '../stimuli/objectome/1267.jpeg']",195205.0,0.0,122.0,14.0,filler,,,,,,,,,,,,,chairs,_031,chairs,_031,within,"{'1': None, '2': None, '3': None}",chairs,"[1261, 1267]",_001,V3,,,,,,,,,,,,,,,,,,,,,,,,,,,,,,,,,,,,,,,,,,,,,,,,,,,,,,,,,,,,,
13746,626f826b1a371c538416b26d,Chrome,2.0,main_task,1.0,2.0,chris,"5/2/2022, 12:04:11 AM",hgdn3jchvl76kthdexth,0.0-112.0,pilot_sona_afc2,39,,,1513.0,,,,1385,"['../stimuli/objectome/3024.jpeg', '../stimuli/objectome/1513.jpeg', '../stimuli/objectome/3037.jpeg']",196880.0,0.0,124.0,15.0,filler,,,,,,,,,,,,,planes,_01_Airliner_2jetEngines,planes,_01_Airliner_2jetEngines,within,"{'1': None, '2': None, '3': None}",planes,"[3024, 3037]",sopwith,V3,,,,,,,,,,,,,,,,,,,,,,,,,,,,,,,,,,,,,,,,,,,,,,,,,,,,,,,,,,,,,
13747,626f826d1a371c538416b26e,Chrome,1.0,main_task,1.0,1.0,chris,"5/2/2022, 12:04:13 AM",hgdn3jchvl76kthdexth,0.0-114.0,pilot_sona_afc2,37,,,1430.0,,,,1575,"['../stimuli/objectome/1430.jpeg', '../stimuli/objectome/1302.jpeg', '../stimuli/objectome/1284.jpeg']",198777.0,0.0,126.0,16.0,filler,,,,,,,,,,,,,chairs,_011,chairs,_011,within,"{'1': None, '2': None, '3': None}",chairs,"[1302, 1284]",_004,V3,,,,,,,,,,,,,,,,,,,,,,,,,,,,,,,,,,,,,,,,,,,,,,,,,,,,,,,,,,,,,
13748,626f826f1a371c538416b26f,Chrome,3.0,main_task,1.0,3.0,chris,"5/2/2022, 12:04:15 AM",hgdn3jchvl76kthdexth,0.0-116.0,pilot_sona_afc2,40,,,1540.0,,,,1410,"['../stimuli/objectome/1261.jpeg', '../stimuli/objectome/1267.jpeg', '../stimuli/objectome/1540.jpeg']",200502.0,0.0,128.0,17.0,filler,,,,,,,,,,,,,chairs,_031,chairs,_031,within,"{'1': None, '2': None, '3': None}",chairs,"[1261, 1267]",_001,V3,,,,,,,,,,,,,,,,,,,,,,,,,,,,,,,,,,,,,,,,,,,,,,,,,,,,,,,,,,,,,
13749,626f82711a371c538416b270,Chrome,3.0,main_task,1.0,3.0,chris,"5/2/2022, 12:04:17 AM",hgdn3jchvl76kthdexth,0.0-118.0,pilot_sona_afc2,40,,,2996.0,,,,1662,"['../stimuli/objectome/1497.jpeg', '../stimuli/objectome/1481.jpeg', '../stimuli/objectome/2996.jpeg']",202784.0,0.0,130.0,18.0,filler,,,,,,,,,,,,,planes,rdbarren,planes,rdbarren,within,"{'1': None, '2': None, '3': None}",planes,"[1497, 1481]",_01_Airliner_2jetEngines,V3,,,,,,,,,,,,,,,,,,,,,,,,,,,,,,,,,,,,,,,,,,,,,,,,,,,,,,,,,,,,,
13750,626f82731a371c538416b271,Chrome,2.0,main_task,1.0,2.0,chris,"5/2/2022, 12:04:19 AM",hgdn3jchvl76kthdexth,0.0-120.0,pilot_sona_afc2,39,,,2087.0,,,,1781,"['../stimuli/objectome/1238.jpeg', '../stimuli/objectome/2087.jpeg', '../stimuli/objectome/1239.jpeg']",205010.0,0.0,132.0,19.0,filler,,,,,,,,,,,,,animals,bear,animals,bear,within,"{'1': None, '2': None, '3': None}",animals,"[1238, 1239]",TURTLE_L,V3,,,,,,,,,,,,,,,,,,,,,,,,,,,,,,,,,,,,,,,,,,,,,,,,,,,,,,,,,,,,,
13751,626f82751a371c538416b272,Chrome,2.0,main_task,1.0,2.0,chris,"5/2/2022, 12:04:21 AM",hgdn3jchvl76kthdexth,0.0-122.0,pilot_sona_afc2,39,,,374.0,,,,1437,"['../stimuli/objectome/531.jpeg', '../stimuli/objectome/374.jpeg', '../stimuli/objectome/539.jpeg']",206947.0,0.0,134.0,20.0,filler,,,,,,,,,,,,,animals,blCow,animals,blCow,within,"{'1': None, '2': None, '3': None}",animals,"[531, 539]",hedgehog,V0,,,,,,,,,,,,,,,,,,,,,,,,,,,,,,,,,,,,,,,,,,,,,,,,,,,,,,,,,,,,,
13752,626f82791a371c538416b273,Chrome,,main_task,,,chris,"5/2/2022, 12:04:25 AM",,0.0-124.0,pilot_sona_afc2,,,,,,,,3088.5,"<p style='font-size: 150%'><b>You have finished Part 2!</b></p><p>Nice job! On this section, you averaged <b>95% accuracy</b>.</p><p>Click 'Next' to continue to Part 3.</p>",210689.0,,136.0,,bonus_update,,,,,,,,,,0,filler,1.5299999999999998,,,,,,,,,,,,,,,,,,,,,,,,,,,,,,,,,,,,,,,,,,,,,,,,,,,,,,,,,,,,,,,,,,,,,,,
13753,626f829e1a371c538416b274,Chrome,,main_task,1.0,2.0,chris,"5/2/2022, 12:05:02 AM",hgdn3jchvl76kthdexth,0.0-126.0-0.0,pilot_sona_afc2,,,,,,,,5591.200000047684,,248296.0,0.0,138.0,1.0,retrieval_practice,,,,,,,,,,,,,,,,,,,,,,,,,,,,,,,,91,,,,50L,-50,,,,,,,,,,,,,,,,,,,,,"{'muct_id': '82', 'lighting': 'q', 'race_guess': 'b', 'gender_guess': 'm', 'quality': '3', 'quality_eyes': '3', 'quality_mouth': '3', 'quality_ears': '3', 'quality_hair': '3', 'quality_neck': '3', 'facial_hair': '1.0', 'notes': None, 'race_common': 'black', 'gender_common': 'man'}","{'muct_id': '240', 'lighting': 'u', 'race_guess': 'w', 'gender_guess': 'm', 'quality': '3', 'quality_eyes': '3', 'quality_mouth': '3', 'quality_ears': '3', 'quality_hair': '3', 'quality_neck': '3', 'facial_hair': '0.0', 'notes': 'mouth', 'race_common': 'white', 'gender_common': 'man'}",man,056,0.0,black,50R,C,041,oddity,man,080,1.0,11.0,00C,C,white,50L,C,"['../stimuli/version1_gray_lm/id056_50R_C.png', '../stimuli/version1_gray_lm/id080_50L_C.png']",,,0.7972558736801147,0.8238822817802429,,
13754,626f82a41a371c538416b275,Chrome,,main_task,1.0,2.0,chris,"5/2/2022, 12:05:08 AM",hgdn3jchvl76kthdexth,0.0-127.0-0.0,pilot_sona_afc2,,,,,,,,3929.800000190735,,254375.0,0.0,140.0,2.0,retrieval_practice,,,,,,,,,,,,,,,,,,,,,,,,,,,,,,,,80,,,,00C,0,,,,,,,,,,,,,,,,,,,,,"{'muct_id': '259', 'lighting': 'v', 'race_guess': 'b', 'gender_guess': 'm', 'quality': '3', 'quality_eyes': '3', 'quality_mouth': '3', 'quality_ears': '3', 'quality_hair': '3', 'quality_neck': '3', 'facial_hair': '2.0', 'notes': None, 'race_common': 'black', 'gender_common': 'man'}","{'muct_id': '414', 'lighting': 'w', 'race_guess': 'w', 'gender_guess': 'm', 'quality': '3', 'quality_eyes': '3', 'quality_mouth': '3', 'quality_ears': '3', 'quality_hair': '3', 'quality_neck': '3', 'facial_hair': '0.0', 'notes': None, 'race_common': 'white', 'gender_common': 'man'}",man,090,0.0,black,25L,D,032,oddity,man,116,1.0,4.0,00C,D,white,00C,D,"['../stimuli/version1_gray_lm/id090_25L_D.png', '../stimuli/version1_gray_lm/id116_00C_D.png']",,,0.8555980324745178,0.8697882890701294,,
13755,626f82a81a371c538416b276,Chrome,,main_task,1.0,2.0,chris,"5/2/2022, 12:05:12 AM",hgdn3jchvl76kthdexth,0.0-128.0-0.0,pilot_sona_afc2,,,,,,,,2872.100000143051,,257950.0,0.0,142.0,3.0,retrieval_practice,,,,,,,,,,,,,,,,,,,,,,,,,,,,,,,,85,,,,50R,50,,,,,,,,,,,,,,,,,,,,,"{'muct_id': '70', 'lighting': 'r', 'race_guess': 'w', 'gender_guess': 'm', 'quality': '3', 'quality_eyes': '3', 'quality_mouth': '3', 'quality_ears': '3', 'quality_hair': '3', 'quality_neck': '3', 'facial_hair': '4.0', 'notes': 'beard', 'race_common': 'white', 'gender_common': 'man'}","{'muct_id': '250', 'lighting': 't', 'race_guess': 'b', 'gender_guess': 'm', 'quality': '3', 'quality_eyes': '3', 'quality_mouth': '3', 'quality_ears': '3', 'quality_hair': '3', 'quality_neck': '3', 'facial_hair': '1.0', 'notes': None, 'race_common': 'black', 'gender_common': 'man'}",man,050,0.0,white,00C,U,105,oddity,man,086,1.0,5.0,50L,U,black,00C,U,"['../stimuli/version1_gray_lm/id050_00C_U.png', '../stimuli/version1_gray_lm/id086_00C_U.png']",,,0.7800014019012451,0.8033007383346558,,
13756,626f82ad1a371c538416b277,Chrome,,main_task,1.0,1.0,chris,"5/2/2022, 12:05:17 AM",hgdn3jchvl76kthdexth,0.0-130.0,pilot_sona_afc2,,,,,,,,3148.5,,262871.0,0.0,145.0,1.0,retrieval,,,,,,,,,,,,,,,,,,,,,,,,,,,,,,,,15,,,,00C,0,,,,,,,,,,,,,,,,,,,,,"{'muct_id': '23', 'lighting': 'q', 'race_guess': 'b', 'gender_guess': 'u', 'quality': '3', 'quality_eyes': '3', 'quality_mouth': '3', 'quality_ears': '3', 'quality_hair': '3', 'quality_neck': '3', 'facial_hair': '0.0', 'notes': None, 'race_common': 'black', 'gender_common': 'woman'}","{'muct_id': '76', 'lighting': 'q', 'race_guess': 'w', 'gender_guess': 'w', 'quality': '2', 'quality_eyes': '2', 'quality_mouth': '3', 'quality_ears': '2', 'quality_hair': '2', 'quality_neck': '3', 'facial_hair': '0.0', 'notes': 'hair', 'race_common': 'white', 'gender_common': 'woman'}",woman,019,1.0,black,25L,D,088,oddity,woman,123,0.0,18.0,25R,C,white,25R,C,"['../stimuli/version1_gray_lm/id123_25R_C.png', '../stimuli/version1_gray_lm/id019_25L_D.png']",,,0.8795315027236938,0.7788952589035034,,
13757,626f82b11a371c538416b278,Chrome,,main_task,0.0,1.0,chris,"5/2/2022, 12:05:21 AM",hgdn3jchvl76kthdexth,0.0-132.0,pilot_sona_afc2,,,,,,,,3937.800000190735,,267398.0,0.0,147.0,2.0,retrieval,,,,,,,,,,,,,,,,,,,,,,,,,,,,,,,,88,,,,00C,0,,,,,,,,,,,,,,,,,,,,,"{'muct_id': '233', 'lighting': 'u', 'race_guess': 'w', 'gender_guess': 'w', 'quality': '3', 'quality_eyes': '3', 'quality_mouth': '3', 'quality_ears': '3', 'quality_hair': '3', 'quality_neck': '3', 'facial_hair': '0.0', 'notes': 'earrings', 'race_common': 'white', 'gender_common': 'woman'}","{'muct_id': '26', 'lighting': 'q', 'race_guess': 'b', 'gender_guess': 'w', 'quality': '3', 'quality_eyes': '3', 'quality_mouth': '3', 'quality_ears': '3', 'quality_hair': '3', 'quality_neck': '3', 'facial_hair': '0.0', 'notes': 'earrings', 'race_common': 'black', 'gender_common': 'woman'}",woman,076,1.0,white,50R,D,077,oddity,woman,022,0.0,36.0,50L,C,black,50L,C,"['../stimuli/version1_gray_lm/id022_50L_C.png', '../stimuli/version1_gray_lm/id076_50R_D.png']",,,0.8258563876152039,0.8221736550331116,,
13758,626f82b71a371c538416b279,Chrome,,main_task,0.0,1.0,chris,"5/2/2022, 12:05:27 AM",hgdn3jchvl76kthdexth,0.0-134.0,pilot_sona_afc2,,,,,,,,5034,,272952.0,0.0,149.0,3.0,retrieval,,,,,,,,,,,,,,,,,,,,,,,,,,,,,,,,90,,,,00C,0,,,,,,,,,,,,,,,,,,,,,"{'muct_id': '66', 'lighting': 'r', 'race_guess': 'w', 'gender_guess': 'm', 'quality': '3', 'quality_eyes': '3', 'quality_mouth': '3', 'quality_ears': '3', 'quality_hair': '3', 'quality_neck': '3', 'facial_hair': '0.0', 'notes': None, 'race_common': 'white', 'gender_common': 'man'}","{'muct_id': '419', 'lighting': 'x', 'race_guess': 'b', 'gender_guess': 'm', 'quality': '3', 'quality_eyes': '3', 'quality_mouth': '3', 'quality_ears': '3', 'quality_hair': '3', 'quality_neck': '3', 'facial_hair': '1.0', 'notes': None, 'race_common': 'black', 'gender_common': 'man'}",man,049,1.0,white,25R,U,064,oddity,man,118,0.0,14.0,00C,D,black,00C,D,"['../stimuli/version1_gray_lm/id118_00C_D.png', '../stimuli/version1_gray_lm/id049_25R_U.png']",,,0.801816999912262,0.8874856233596802,,
13759,626f82bb1a371c538416b27a,Chrome,,main_task,0.0,1.0,chris,"5/2/2022, 12:05:31 AM",hgdn3jchvl76kthdexth,0.0-136.0,pilot_sona_afc2,,,,,,,,3460,,276985.0,0.0,151.0,4.0,retrieval,,,,,,,,,,,,,,,,,,,,,,,,,,,,,,,,85,,,,00C,0,,,,,,,,,,,,,,,,,,,,,"{'muct_id': '74', 'lighting': 'q', 'race_guess': 'w', 'gender_guess': 'w', 'quality': '3', 'quality_eyes': '3', 'quality_mouth': '3', 'quality_ears': '3', 'quality_hair': '3', 'quality_neck': '3', 'facial_hair': '0.0', 'notes': None, 'race_common': 'white', 'gender_common': 'woman'}","{'muct_id': '41', 'lighting': 'r', 'race_guess': 'b', 'gender_guess': 'm', 'quality': '3', 'quality_eyes': '3', 'quality_mouth': '3', 'quality_ears': '3', 'quality_hair': '3', 'quality_neck': '3', 'facial_hair': '0.0', 'notes': None, 'race_common': 'black', 'gender_common': 'man'}",woman,051,1.0,white,25L,D,085,oddity,man,030,0.0,15.0,50L,C,black,50L,C,"['../stimuli/version1_gray_lm/id030_50L_C.png', '../stimuli/version1_gray_lm/id051_25L_D.png']",,,0.8554887771606445,0.8169581294059753,,
13760,626f82be1a371c538416b27b,Chrome,,main_task,1.0,2.0,chris,"5/2/2022, 12:05:34 AM",hgdn3jchvl76kthdexth,0.0-138.0,pilot_sona_afc2,,,,,,,,2612.7999999523163,,280243.0,0.0,153.0,5.0,retrieval,,,,,,,,,,,,,,,,,,,,,,,,,,,,,,,,91,,,,00C,0,,,,,,,,,,,,,,,,,,,,,"{'muct_id': '18', 'lighting': 'q', 'race_guess': 'b', 'gender_guess': 'w', 'quality': '3', 'quality_eyes': '3', 'quality_mouth': '3', 'quality_ears': '3', 'quality_hair': '3', 'quality_neck': '3', 'facial_hair': '0.0', 'notes': 'earrings', 'race_common': 'black', 'gender_common': 'woman'}","{'muct_id': '89', 'lighting': 'r', 'race_guess': 'w', 'gender_guess': 'm', 'quality': '3', 'quality_eyes': '3', 'quality_mouth': '3', 'quality_ears': '3', 'quality_hair': '3', 'quality_neck': '3', 'facial_hair': '2.0', 'notes': None, 'race_common': 'white', 'gender_common': 'man'}",woman,016,0.0,black,25R,D,089,oddity,man,061,1.0,19.0,00C,C,white,00C,C,"['../stimuli/version1_gray_lm/id016_25R_D.png', '../stimuli/version1_gray_lm/id061_00C_C.png']",,,0.846680760383606,0.8612361550331116,,
13761,626f82c31a371c538416b27c,Chrome,,main_task,1.0,1.0,chris,"5/2/2022, 12:05:39 AM",hgdn3jchvl76kthdexth,0.0-140.0,pilot_sona_afc2,,,,,,,,4116.5,,284843.0,0.0,155.0,6.0,retrieval,,,,,,,,,,,,,,,,,,,,,,,,,,,,,,,,21,,,,50R,50,,,,,,,,,,,,,,,,,,,,,"{'muct_id': '405', 'lighting': 'w', 'race_guess': 'b', 'gender_guess': 'w', 'quality': '3', 'quality_eyes': '3', 'quality_mouth': '3', 'quality_ears': '3', 'quality_hair': '3', 'quality_neck': '3', 'facial_hair': '0.0', 'notes': 'hair earrings', 'race_common': 'black', 'gender_common': 'woman'}","{'muct_id': '48', 'lighting': 'w', 'race_guess': 'w', 'gender_guess': 'm', 'quality': '3', 'quality_eyes': '3', 'quality_mouth': '3', 'quality_ears': '3', 'quality_hair': '3', 'quality_neck': '3', 'facial_hair': '0.0', 'notes': None, 'race_common': 'white', 'gender_common': 'man'}",woman,111,1.0,black,50R,U,053,oddity,man,037,0.0,39.0,00C,C,white,50R,C,"['../stimuli/version1_gray_lm/id037_50R_C.png', '../stimuli/version1_gray_lm/id111_50R_U.png']",,,0.8416100144386292,0.8379590511322021,,
13762,626f82c81a371c538416b27d,Chrome,,main_task,1.0,1.0,chris,"5/2/2022, 12:05:44 AM",hgdn3jchvl76kthdexth,0.0-142.0,pilot_sona_afc2,,,,,,,,4221.5,,289605.0,0.0,157.0,7.0,retrieval,,,,,,,,,,,,,,,,,,,,,,,,,,,,,,,,20,,,,00C,0,,,,,,,,,,,,,,,,,,,,,"{'muct_id': '37', 'lighting': 'q', 'race_guess': 'b', 'gender_guess': 'w', 'quality': '3', 'quality_eyes': '3', 'quality_mouth': '3', 'quality_ears': '3', 'quality_hair': '3', 'quality_neck': '3', 'facial_hair': '0.0', 'notes': 'earrings', 'race_common': 'black', 'gender_common': 'woman'}","{'muct_id': '437', 'lighting': 'x', 'race_guess': 'w', 'gender_guess': 'w', 'quality': '3', 'quality_eyes': '3', 'quality_mouth': '3', 'quality_ears': '3', 'quality_hair': '3', 'quality_neck': '3', 'facial_hair': '0.0', 'notes': 'hair', 'race_common': 'white', 'gender_common': 'woman'}",woman,027,1.0,black,25R,U,148,oddity,woman,153,0.0,32.0,00C,U,white,00C,U,"['../stimuli/version1_gray_lm/id153_00C_U.png', '../stimuli/version1_gray_lm/id027_25R_U.png']",,,0.8475863337516785,0.847693920135498,,
13763,626f82cd1a371c538416b27e,Chrome,,main_task,0.0,1.0,chris,"5/2/2022, 12:05:49 AM",hgdn3jchvl76kthdexth,0.0-144.0,pilot_sona_afc2,,,,,,,,4318.599999904633,,294875.0,0.0,159.0,8.0,retrieval,,,,,,,,,,,,,,,,,,,,,,,,,,,,,,,,69,,,,50R,50,,,,,,,,,,,,,,,,,,,,,"{'muct_id': '87', 'lighting': 'r', 'race_guess': 'b', 'gender_guess': 'w', 'quality': '3', 'quality_eyes': '3', 'quality_mouth': '3', 'quality_ears': '3', 'quality_hair': '3', 'quality_neck': '3', 'facial_hair': '0.0', 'notes': 'earrings hair', 'race_common': 'black', 'gender_common': 'woman'}","{'muct_id': '12', 'lighting': 'q', 'race_guess': 'i', 'gender_guess': 'm', 'quality': '3', 'quality_eyes': '3', 'quality_mouth': '3', 'quality_ears': '3', 'quality_hair': '3', 'quality_neck': '3', 'facial_hair': '2.0', 'notes': None, 'race_common': 'white', 'gender_common': 'man'}",woman,142,1.0,black,25L,D,131,oddity,man,012,0.0,21.0,50L,U,white,00C,U,"['../stimuli/version1_gray_lm/id012_00C_U.png', '../stimuli/version1_gray_lm/id142_25L_D.png']",,,0.85060715675354,0.848041296005249,,
13764,626f82d31a371c538416b27f,Chrome,,main_task,1.0,2.0,chris,"5/2/2022, 12:05:55 AM",hgdn3jchvl76kthdexth,0.0-146.0,pilot_sona_afc2,,,,,,,,5586.799999952316,,300938.0,0.0,161.0,9.0,retrieval,,,,,,,,,,,,,,,,,,,,,,,,,,,,,,,,90,,,,50L,-50,,,,,,,,,,,,,,,,,,,,,"{'muct_id': '21', 'lighting': 'q', 'race_guess': 'w', 'gender_guess': 'w', 'quality': '3', 'quality_eyes': '3', 'quality_mouth': '3', 'quality_ears': '3', 'quality_hair': '3', 'quality_neck': '3', 'facial_hair': '0.0', 'notes': None, 'race_common': 'white', 'gender_common': 'woman'}","{'muct_id': '243', 'lighting': 'v', 'race_guess': 'b', 'gender_guess': 'm', 'quality': '3', 'quality_eyes': '3', 'quality_mouth': '3', 'quality_ears': '3', 'quality_hair': '3', 'quality_neck': '3', 'facial_hair': '0.0', 'notes': None, 'race_common': 'black', 'gender_common': 'man'}",woman,018,0.0,white,00C,U,097,oddity,man,083,1.0,16.0,50R,U,black,00C,U,"['../stimuli/version1_gray_lm/id018_00C_U.png', '../stimuli/version1_gray_lm/id083_00C_U.png']",,,0.7882986664772034,0.75100177526474,,
13765,626f82d71a371c538416b280,Chrome,,main_task,0.0,1.0,chris,"5/2/2022, 12:05:59 AM",hgdn3jchvl76kthdexth,0.0-148.0,pilot_sona_afc2,,,,,,,,4047.899999856949,,305424.0,0.0,163.0,10.0,retrieval,,,,,,,,,,,,,,,,,,,,,,,,,,,,,,,,69,,,,50R,50,,,,,,,,,,,,,,,,,,,,,"{'muct_id': '58', 'lighting': 'q', 'race_guess': 'w', 'gender_guess': 'm', 'quality': '3', 'quality_eyes': '3', 'quality_mouth': '3', 'quality_ears': '3', 'quality_hair': '3', 'quality_neck': '3', 'facial_hair': '0.0', 'notes': None, 'race_common': 'white', 'gender_common': 'man'}","{'muct_id': '431', 'lighting': 'x', 'race_guess': 'b', 'gender_guess': 'u', 'quality': '3', 'quality_eyes': '3', 'quality_mouth': '3', 'quality_ears': '3', 'quality_hair': '3', 'quality_neck': '3', 'facial_hair': '0.0', 'notes': 'mouth', 'race_common': 'black', 'gender_common': 'man'}",man,043,1.0,white,50L,D,036,oddity,man,124,0.0,0.0,25L,D,black,25R,D,"['../stimuli/version1_gray_lm/id124_25R_D.png', '../stimuli/version1_gray_lm/id043_50L_D.png']",,,0.8124279975891113,0.8592950701713562,,
13766,626f82db1a371c538416b281,Chrome,,main_task,0.0,1.0,chris,"5/2/2022, 12:06:03 AM",hgdn3jchvl76kthdexth,0.0-150.0,pilot_sona_afc2,,,,,,,,2777,,308608.0,0.0,165.0,11.0,retrieval,,,,,,,,,,,,,,,,,,,,,,,,,,,,,,,,70,,,,00C,0,,,,,,,,,,,,,,,,,,,,,"{'muct_id': '38', 'lighting': 'q', 'race_guess': 'b', 'gender_guess': 'm', 'quality': '3', 'quality_eyes': '3', 'quality_mouth': '3', 'quality_ears': '3', 'quality_hair': '3', 'quality_neck': '3', 'facial_hair': '2.0', 'notes': None, 'race_common': 'black', 'gender_common': 'man'}","{'muct_id': '229', 'lighting': 't', 'race_guess': 'w', 'gender_guess': 'm', 'quality': '3', 'quality_eyes': '3', 'quality_mouth': '3', 'quality_ears': '3', 'quality_hair': '3', 'quality_neck': '3', 'facial_hair': '2.0', 'notes': 'mouth', 'race_common': 'white', 'gender_common': 'man'}",man,028,1.0,black,00C,C,149,oddity,man,074,0.0,25.0,25R,D,white,25R,D,"['../stimuli/version1_gray_lm/id074_25R_D.png', '../stimuli/version1_gray_lm/id028_00C_C.png']",,,0.8093554973602295,0.8224310278892517,,
13767,626f82de1a371c538416b282,Chrome,,main_task,1.0,2.0,chris,"5/2/2022, 12:06:06 AM",hgdn3jchvl76kthdexth,0.0-152.0,pilot_sona_afc2,,,,,,,,2418.5999999046326,,311503.0,0.0,167.0,12.0,retrieval,,,,,,,,,,,,,,,,,,,,,,,,,,,,,,,,94,,,,00C,0,,,,,,,,,,,,,,,,,,,,,"{'muct_id': '203', 'lighting': 'u', 'race_guess': 'i', 'gender_guess': 'm', 'quality': '2', 'quality_eyes': '2', 'quality_mouth': '3', 'quality_ears': '3', 'quality_hair': '3', 'quality_neck': '3', 'facial_hair': '2.0', 'notes': 'mouth', 'race_common': 'white', 'gender_common': 'man'}","{'muct_id': '83', 'lighting': 'r', 'race_guess': 'b', 'gender_guess': 'm', 'quality': '3', 'quality_eyes': '3', 'quality_mouth': '3', 'quality_ears': '3', 'quality_hair': '3', 'quality_neck': '3', 'facial_hair': '3.0', 'notes': None, 'race_common': 'black', 'gender_common': 'man'}",man,063,0.0,white,50R,C,001,oddity,man,057,1.0,34.0,00C,U,black,00C,U,"['../stimuli/version1_gray_lm/id063_50R_C.png', '../stimuli/version1_gray_lm/id057_00C_U.png']",,,0.846563994884491,0.8030478954315186,,
13768,626f82e11a371c538416b283,Chrome,,main_task,0.0,2.0,chris,"5/2/2022, 12:06:09 AM",hgdn3jchvl76kthdexth,0.0-154.0,pilot_sona_afc2,,,,,,,,3184.4000000953674,,315117.0,0.0,169.0,13.0,retrieval,,,,,,,,,,,,,,,,,,,,,,,,,,,,,,,,31,,,,00C,0,,,,,,,,,,,,,,,,,,,,,"{'muct_id': '601', 'lighting': 'y', 'race_guess': 'b', 'gender_guess': 'w', 'quality': '3', 'quality_eyes': '3', 'quality_mouth': '3', 'quality_ears': '3', 'quality_hair': '3', 'quality_neck': '3', 'facial_hair': '0.0', 'notes': 'mouth', 'race_common': 'black', 'gender_common': 'woman'}","{'muct_id': '258', 'lighting': 'u', 'race_guess': 'w', 'gender_guess': 'm', 'quality': '2', 'quality_eyes': '3', 'quality_mouth': '3', 'quality_ears': '3', 'quality_hair': '2', 'quality_neck': '3', 'facial_hair': '0.0', 'notes': 'hair', 'race_common': 'white', 'gender_common': 'man'}",woman,133,0.0,black,00C,U,099,oddity,man,156,1.0,27.0,00C,U,white,00C,U,"['../stimuli/version1_gray_lm/id133_00C_U.png', '../stimuli/version1_gray_lm/id156_00C_U.png']",,,0.8410040140151978,0.8364711403846741,,
13769,626f82e51a371c538416b284,Chrome,,main_task,0.0,2.0,chris,"5/2/2022, 12:06:13 AM",hgdn3jchvl76kthdexth,0.0-156.0,pilot_sona_afc2,,,,,,,,3183.0999999046326,,318835.0,0.0,171.0,14.0,retrieval,,,,,,,,,,,,,,,,,,,,,,,,,,,,,,,,27,,,,50R,50,,,,,,,,,,,,,,,,,,,,,"{'muct_id': '44', 'lighting': 'q', 'race_guess': 'u', 'gender_guess': 'm', 'quality': '3', 'quality_eyes': '3', 'quality_mouth': '3', 'quality_ears': '3', 'quality_hair': '3', 'quality_neck': '3', 'facial_hair': '2.0', 'notes': None, 'race_common': 'black', 'gender_common': 'man'}","{'muct_id': '283', 'lighting': 't', 'race_guess': 'i', 'gender_guess': 'w', 'quality': '3', 'quality_eyes': '3', 'quality_mouth': '3', 'quality_ears': '3', 'quality_hair': '3', 'quality_neck': '3', 'facial_hair': '0.0', 'notes': 'pottu', 'race_common': 'white', 'gender_common': 'woman'}",man,033,0.0,black,50L,U,101,oddity,woman,102,1.0,9.0,25L,U,white,25R,U,"['../stimuli/version1_gray_lm/id033_50L_U.png', '../stimuli/version1_gray_lm/id102_25R_U.png']",,,0.8232301473617554,0.8125907182693481,,
13770,626f82e81a371c538416b285,Chrome,,main_task,0.0,1.0,chris,"5/2/2022, 12:06:16 AM",hgdn3jchvl76kthdexth,0.0-158.0,pilot_sona_afc2,,,,,,,,2483.2999999523163,,321754.0,0.0,173.0,15.0,retrieval,,,,,,,,,,,,,,,,,,,,,,,,,,,,,,,,82,,,,50R,50,,,,,,,,,,,,,,,,,,,,,"{'muct_id': '80', 'lighting': 's', 'race_guess': 'b', 'gender_guess': 'w', 'quality': '3', 'quality_eyes': '3', 'quality_mouth': '3', 'quality_ears': '3', 'quality_hair': '3', 'quality_neck': '3', 'facial_hair': '0.0', 'notes': 'earrings', 'race_common': 'white', 'gender_common': 'woman'}","{'muct_id': '617', 'lighting': 'y', 'race_guess': 'b', 'gender_guess': 'w', 'quality': '3', 'quality_eyes': '3', 'quality_mouth': '3', 'quality_ears': '3', 'quality_hair': '3', 'quality_neck': '3', 'facial_hair': '0.0', 'notes': 'mouth', 'race_common': 'black', 'gender_common': 'man'}",woman,054,1.0,white,00C,D,040,oddity,man,137,0.0,29.0,00C,D,black,50R,D,"['../stimuli/version1_gray_lm/id137_50R_D.png', '../stimuli/version1_gray_lm/id054_00C_D.png']",,,0.9021112322807312,0.8346734642982483,,
13771,626f82ea1a371c538416b286,Chrome,,main_task,0.0,2.0,chris,"5/2/2022, 12:06:18 AM",hgdn3jchvl76kthdexth,0.0-160.0,pilot_sona_afc2,,,,,,,,2300.7999999523163,,324413.0,0.0,175.0,16.0,retrieval,,,,,,,,,,,,,,,,,,,,,,,,,,,,,,,,14,,,,50L,-50,,,,,,,,,,,,,,,,,,,,,"{'muct_id': '46', 'lighting': 'q', 'race_guess': 'b', 'gender_guess': 'w', 'quality': '3', 'quality_eyes': '3', 'quality_mouth': '3', 'quality_ears': '3', 'quality_hair': '3', 'quality_neck': '3', 'facial_hair': '0.0', 'notes': 'earrings', 'race_common': 'black', 'gender_common': 'woman'}","{'muct_id': '280', 'lighting': 'u', 'race_guess': 'w', 'gender_guess': 'm', 'quality': '3', 'quality_eyes': '3', 'quality_mouth': '3', 'quality_ears': '3', 'quality_hair': '3', 'quality_neck': '3', 'facial_hair': '0.0', 'notes': None, 'race_common': 'white', 'gender_common': 'man'}",woman,035,0.0,black,25L,U,146,oddity,man,100,1.0,30.0,00C,C,white,50L,C,"['../stimuli/version1_gray_lm/id035_25L_U.png', '../stimuli/version1_gray_lm/id100_50L_C.png']",,,0.7532981634140015,0.8042360544204712,,
13772,626f82ee1a371c538416b287,Chrome,,main_task,1.0,1.0,chris,"5/2/2022, 12:06:22 AM",hgdn3jchvl76kthdexth,0.0-162.0,pilot_sona_afc2,,,,,,,,2618.600000143051,,327550.0,0.0,177.0,17.0,retrieval,,,,,,,,,,,,,,,,,,,,,,,,,,,,,,,,13,,,,00C,0,,,,,,,,,,,,,,,,,,,,,"{'muct_id': '24', 'lighting': 'q', 'race_guess': 'b', 'gender_guess': 'w', 'quality': '3', 'quality_eyes': '3', 'quality_mouth': '3', 'quality_ears': '3', 'quality_hair': '3', 'quality_neck': '3', 'facial_hair': '0.0', 'notes': None, 'race_common': 'black', 'gender_common': 'woman'}","{'muct_id': '263', 'lighting': 'u', 'race_guess': 'w', 'gender_guess': 'm', 'quality': '3', 'quality_eyes': '3', 'quality_mouth': '3', 'quality_ears': '3', 'quality_hair': '3', 'quality_neck': '3', 'facial_hair': '2.0', 'notes': None, 'race_common': 'white', 'gender_common': 'man'}",woman,020,1.0,black,50R,U,143,oddity,man,093,0.0,28.0,25R,D,white,25R,D,"['../stimuli/version1_gray_lm/id093_25R_D.png', '../stimuli/version1_gray_lm/id020_50R_U.png']",,,0.789868175983429,0.8248165845870972,,
13773,626f82f11a371c538416b288,Chrome,,main_task,0.0,1.0,chris,"5/2/2022, 12:06:25 AM",hgdn3jchvl76kthdexth,0.0-164.0,pilot_sona_afc2,,,,,,,,2641.2000000476837,,330791.0,0.0,179.0,18.0,retrieval,,,,,,,,,,,,,,,,,,,,,,,,,,,,,,,,100,,,,50L,-50,,,,,,,,,,,,,,,,,,,,,"{'muct_id': '86', 'lighting': 'q', 'race_guess': 'b', 'gender_guess': 'w', 'quality': '3', 'quality_eyes': '3', 'quality_mouth': '3', 'quality_ears': '3', 'quality_hair': '3', 'quality_neck': '3', 'facial_hair': '0.0', 'notes': 'earrings', 'race_common': 'black', 'gender_common': 'woman'}","{'muct_id': '230', 'lighting': 'u', 'race_guess': 'w', 'gender_guess': 'm', 'quality': '3', 'quality_eyes': '3', 'quality_mouth': '3', 'quality_ears': '3', 'quality_hair': '3', 'quality_neck': '3', 'facial_hair': '0.0', 'notes': 'hair', 'race_common': 'white', 'gender_common': 'man'}",woman,059,1.0,black,25R,C,039,oddity,man,145,0.0,13.0,50R,U,white,00C,U,"['../stimuli/version1_gray_lm/id145_00C_U.png', '../stimuli/version1_gray_lm/id059_25R_C.png']",,,0.809404730796814,0.820552408695221,,
13774,626f82f61a371c538416b289,Chrome,,main_task,1.0,2.0,chris,"5/2/2022, 12:06:30 AM",hgdn3jchvl76kthdexth,0.0-166.0,pilot_sona_afc2,,,,,,,,4917.599999904633,,336224.0,0.0,181.0,19.0,retrieval,,,,,,,,,,,,,,,,,,,,,,,,,,,,,,,,58,,,,00C,0,,,,,,,,,,,,,,,,,,,,,"{'muct_id': '412', 'lighting': 'x', 'race_guess': 'w', 'gender_guess': 'm', 'quality': '3', 'quality_eyes': '3', 'quality_mouth': '3', 'quality_ears': '3', 'quality_hair': '3', 'quality_neck': '3', 'facial_hair': '0.0', 'notes': None, 'race_common': 'white', 'gender_common': 'man'}","{'muct_id': '420', 'lighting': 'w', 'race_guess': 'b', 'gender_guess': 'm', 'quality': '3', 'quality_eyes': '3', 'quality_mouth': '3', 'quality_ears': '3', 'quality_hair': '3', 'quality_neck': '3', 'facial_hair': '0.0', 'notes': None, 'race_common': 'black', 'gender_common': 'man'}",man,115,0.0,white,25L,C,072,oddity,man,119,1.0,22.0,50R,D,black,50R,D,"['../stimuli/version1_gray_lm/id115_25L_C.png', '../stimuli/version1_gray_lm/id119_50R_D.png']",,,0.8346936702728271,0.8421387672424316,,
13775,626f82fa1a371c538416b28a,Chrome,,main_task,1.0,2.0,chris,"5/2/2022, 12:06:34 AM",hgdn3jchvl76kthdexth,0.0-168.0,pilot_sona_afc2,,,,,,,,3267.2000000476837,,339870.0,0.0,183.0,20.0,retrieval,,,,,,,,,,,,,,,,,,,,,,,,,,,,,,,,100,,,,00C,0,,,,,,,,,,,,,,,,,,,,,"{'muct_id': '623', 'lighting': 'y', 'race_guess': 'b', 'gender_guess': 'm', 'quality': '3', 'quality_eyes': '3', 'quality_mouth': '3', 'quality_ears': '3', 'quality_hair': '3', 'quality_neck': '3', 'facial_hair': '1.0', 'notes': 'mouth', 'race_common': 'black', 'gender_common': 'man'}","{'muct_id': '45', 'lighting': 'q', 'race_guess': 'w', 'gender_guess': 'm', 'quality': '3', 'quality_eyes': '3', 'quality_mouth': '3', 'quality_ears': '3', 'quality_hair': '3', 'quality_neck': '3', 'facial_hair': '0.0', 'notes': None, 'race_common': 'white', 'gender_common': 'man'}",man,139,0.0,black,50R,C,092,oddity,man,034,1.0,37.0,25L,C,white,25L,C,"['../stimuli/version1_gray_lm/id139_50R_C.png', '../stimuli/version1_gray_lm/id034_25L_C.png']",,,0.8194013833999634,0.8475770950317383,,
13776,626f82fd1a371c538416b28b,Chrome,,main_task,1.0,1.0,chris,"5/2/2022, 12:06:37 AM",hgdn3jchvl76kthdexth,0.0-170.0,pilot_sona_afc2,,,,,,,,2891.2999999523163,,343168.0,0.0,185.0,21.0,retrieval,,,,,,,,,,,,,,,,,,,,,,,,,,,,,,,,11,,,,00C,0,,,,,,,,,,,,,,,,,,,,,"{'muct_id': '14', 'lighting': 'q', 'race_guess': 'w', 'gender_guess': 'w', 'quality': '3', 'quality_eyes': '3', 'quality_mouth': '3', 'quality_ears': '3', 'quality_hair': '3', 'quality_neck': '3', 'facial_hair': '0.0', 'notes': None, 'race_common': 'white', 'gender_common': 'woman'}","{'muct_id': '285', 'lighting': 'v', 'race_guess': 'b', 'gender_guess': 'w', 'quality': '3', 'quality_eyes': '3', 'quality_mouth': '3', 'quality_ears': '3', 'quality_hair': '3', 'quality_neck': '3', 'facial_hair': '0.0', 'notes': 'earrings', 'race_common': 'black', 'gender_common': 'woman'}",woman,013,1.0,white,50R,U,127,oddity,woman,103,0.0,31.0,25L,U,black,25L,U,"['../stimuli/version1_gray_lm/id103_25L_U.png', '../stimuli/version1_gray_lm/id013_50R_U.png']",,,0.806887149810791,0.8017293214797974,,
13777,626f83021a371c538416b28c,Chrome,,main_task,1.0,1.0,chris,"5/2/2022, 12:06:42 AM",hgdn3jchvl76kthdexth,0.0-172.0,pilot_sona_afc2,,,,,,,,4560.400000095367,,348035.0,0.0,187.0,22.0,retrieval,,,,,,,,,,,,,,,,,,,,,,,,,,,,,,,,39,,,,50L,-50,,,,,,,,,,,,,,,,,,,,,"{'muct_id': '406', 'lighting': 'w', 'race_guess': 'b', 'gender_guess': 'm', 'quality': '3', 'quality_eyes': '3', 'quality_mouth': '3', 'quality_ears': '3', 'quality_hair': '3', 'quality_neck': '3', 'facial_hair': '1.0', 'notes': None, 'race_common': 'black', 'gender_common': 'man'}","{'muct_id': '60', 'lighting': 's', 'race_guess': 'u', 'gender_guess': 'm', 'quality': '3', 'quality_eyes': '3', 'quality_mouth': '3', 'quality_ears': '3', 'quality_hair': '3', 'quality_neck': '3', 'facial_hair': '2.0', 'notes': None, 'race_common': 'white', 'gender_common': 'man'}",man,112,1.0,black,00C,U,104,oddity,man,044,0.0,6.0,50R,U,white,00C,U,"['../stimuli/version1_gray_lm/id044_00C_U.png', '../stimuli/version1_gray_lm/id112_00C_U.png']",,,0.7495073676109314,0.8481819033622742,,
13778,626f83051a371c538416b28d,Chrome,,main_task,1.0,1.0,chris,"5/2/2022, 12:06:45 AM",hgdn3jchvl76kthdexth,0.0-174.0,pilot_sona_afc2,,,,,,,,2839,,351325.0,0.0,189.0,23.0,retrieval,,,,,,,,,,,,,,,,,,,,,,,,,,,,,,,,17,,,,00C,0,,,,,,,,,,,,,,,,,,,,,"{'muct_id': '77', 'lighting': 's', 'race_guess': 'w', 'gender_guess': 'w', 'quality': '3', 'quality_eyes': '3', 'quality_mouth': '3', 'quality_ears': '3', 'quality_hair': '3', 'quality_neck': '3', 'facial_hair': '0.0', 'notes': None, 'race_common': 'white', 'gender_common': 'woman'}","{'muct_id': '423', 'lighting': 'w', 'race_guess': 'b', 'gender_guess': 'm', 'quality': '3', 'quality_eyes': '3', 'quality_mouth': '3', 'quality_ears': '3', 'quality_hair': '3', 'quality_neck': '3', 'facial_hair': '1.0', 'notes': None, 'race_common': 'black', 'gender_common': 'man'}",woman,141,1.0,white,00C,D,132,oddity,man,121,0.0,33.0,00C,C,black,00C,C,"['../stimuli/version1_gray_lm/id121_00C_C.png', '../stimuli/version1_gray_lm/id141_00C_D.png']",,,0.8642695546150208,0.8360601663589478,,
13779,626f83091a371c538416b28e,Chrome,,main_task,1.0,2.0,chris,"5/2/2022, 12:06:49 AM",hgdn3jchvl76kthdexth,0.0-176.0,pilot_sona_afc2,,,,,,,,3619,,355423.0,0.0,191.0,24.0,retrieval,,,,,,,,,,,,,,,,,,,,,,,,,,,,,,,,74,,,,50L,-50,,,,,,,,,,,,,,,,,,,,,"{'muct_id': '422', 'lighting': 'w', 'race_guess': 'u', 'gender_guess': 'w', 'quality': '3', 'quality_eyes': '3', 'quality_mouth': '3', 'quality_ears': '3', 'quality_hair': '3', 'quality_neck': '3', 'facial_hair': '0.0', 'notes': 'mouth', 'race_common': 'white', 'gender_common': 'woman'}","{'muct_id': '417', 'lighting': 'w', 'race_guess': 'b', 'gender_guess': 'm', 'quality': '3', 'quality_eyes': '3', 'quality_mouth': '3', 'quality_ears': '3', 'quality_hair': '3', 'quality_neck': '3', 'facial_hair': '1.0', 'notes': 'mouth', 'race_common': 'black', 'gender_common': 'man'}",woman,150,0.0,white,25R,U,058,oddity,man,117,1.0,1.0,25R,D,black,25L,D,"['../stimuli/version1_gray_lm/id150_25R_U.png', '../stimuli/version1_gray_lm/id117_25L_D.png']",,,0.8663346767425537,0.8990145921707153,,
13780,626f830d1a371c538416b28f,Chrome,,main_task,1.0,1.0,chris,"5/2/2022, 12:06:53 AM",hgdn3jchvl76kthdexth,0.0-178.0,pilot_sona_afc2,,,,,,,,2914.7000000476837,,358705.0,0.0,193.0,25.0,retrieval,,,,,,,,,,,,,,,,,,,,,,,,,,,,,,,,26,,,,00C,0,,,,,,,,,,,,,,,,,,,,,"{'muct_id': '5', 'lighting': 'q', 'race_guess': 'b', 'gender_guess': 'w', 'quality': '3', 'quality_eyes': '3', 'quality_mouth': '3', 'quality_ears': '3', 'quality_hair': '3', 'quality_neck': '3', 'facial_hair': '0.0', 'notes': 'hat', 'race_common': 'black', 'gender_common': 'woman'}","{'muct_id': '401', 'lighting': 'w', 'race_guess': 'w', 'gender_guess': 'w', 'quality': '3', 'quality_eyes': '3', 'quality_mouth': '3', 'quality_ears': '3', 'quality_hair': '3', 'quality_neck': '3', 'facial_hair': '0.0', 'notes': 'mouth', 'race_common': 'white', 'gender_common': 'woman'}",woman,005,1.0,black,50L,U,017,oddity,woman,109,0.0,12.0,00C,C,white,00C,C,"['../stimuli/version1_gray_lm/id109_00C_C.png', '../stimuli/version1_gray_lm/id005_50L_U.png']",,,0.7849015593528748,0.8643267154693604,,
13781,626f83101a371c538416b290,Chrome,,main_task,1.0,2.0,chris,"5/2/2022, 12:06:56 AM",hgdn3jchvl76kthdexth,0.0-180.0,pilot_sona_afc2,,,,,,,,2614.5,,361679.0,0.0,195.0,26.0,retrieval,,,,,,,,,,,,,,,,,,,,,,,,,,,,,,,,76,,,,50R,50,,,,,,,,,,,,,,,,,,,,,"{'muct_id': '225', 'lighting': 'u', 'race_guess': 'w', 'gender_guess': 'm', 'quality': '3', 'quality_eyes': '3', 'quality_mouth': '3', 'quality_ears': '3', 'quality_hair': '3', 'quality_neck': '3', 'facial_hair': '2.0', 'notes': None, 'race_common': 'white', 'gender_common': 'man'}","{'muct_id': '260', 'lighting': 't', 'race_guess': 'b', 'gender_guess': 'm', 'quality': '3', 'quality_eyes': '3', 'quality_mouth': '3', 'quality_ears': '3', 'quality_hair': '3', 'quality_neck': '3', 'facial_hair': '4.0', 'notes': 'beard', 'race_common': 'black', 'gender_common': 'man'}",man,073,0.0,white,25R,U,107,oddity,man,091,1.0,8.0,00C,U,black,50R,U,"['../stimuli/version1_gray_lm/id073_25R_U.png', '../stimuli/version1_gray_lm/id091_50R_U.png']",,,0.8360046744346619,0.8543884754180908,,
13782,626f83131a371c538416b291,Chrome,,main_task,0.0,2.0,chris,"5/2/2022, 12:06:59 AM",hgdn3jchvl76kthdexth,0.0-182.0,pilot_sona_afc2,,,,,,,,2389,,364752.0,0.0,197.0,27.0,retrieval,,,,,,,,,,,,,,,,,,,,,,,,,,,,,,,,26,,,,00C,0,,,,,,,,,,,,,,,,,,,,,"{'muct_id': '206', 'lighting': 't', 'race_guess': 'b', 'gender_guess': 'm', 'quality': '3', 'quality_eyes': '3', 'quality_mouth': '3', 'quality_ears': '3', 'quality_hair': '3', 'quality_neck': '3', 'facial_hair': '1.0', 'notes': None, 'race_common': 'black', 'gender_common': 'man'}","{'muct_id': '444', 'lighting': 'w', 'race_guess': 'w', 'gender_guess': 'w', 'quality': '3', 'quality_eyes': '3', 'quality_mouth': '3', 'quality_ears': '3', 'quality_hair': '3', 'quality_neck': '3', 'facial_hair': '0.0', 'notes': None, 'race_common': 'white', 'gender_common': 'woman'}",man,065,0.0,black,50L,C,029,oddity,woman,151,1.0,3.0,50L,U,white,50L,U,"['../stimuli/version1_gray_lm/id065_50L_C.png', '../stimuli/version1_gray_lm/id151_50L_U.png']",,,0.8368241190910339,0.8179031610488892,,
13783,626f83161a371c538416b292,Chrome,,main_task,1.0,2.0,chris,"5/2/2022, 12:07:02 AM",hgdn3jchvl76kthdexth,0.0-184.0,pilot_sona_afc2,,,,,,,,2221.5,,367516.0,0.0,199.0,28.0,retrieval,,,,,,,,,,,,,,,,,,,,,,,,,,,,,,,,71,,,,50R,50,,,,,,,,,,,,,,,,,,,,,"{'muct_id': '213', 'lighting': 'u', 'race_guess': 'b', 'gender_guess': 'w', 'quality': '3', 'quality_eyes': '3', 'quality_mouth': '3', 'quality_ears': '3', 'quality_hair': '3', 'quality_neck': '3', 'facial_hair': '0.0', 'notes': None, 'race_common': 'black', 'gender_common': 'woman'}","{'muct_id': '410', 'lighting': 'w', 'race_guess': 'w', 'gender_guess': 'w', 'quality': '3', 'quality_eyes': '3', 'quality_mouth': '3', 'quality_ears': '3', 'quality_hair': '3', 'quality_neck': '3', 'facial_hair': '0.0', 'notes': 'makeup mouth', 'race_common': 'white', 'gender_common': 'woman'}",woman,068,0.0,black,50L,U,084,oddity,woman,114,1.0,35.0,50L,C,white,00C,C,"['../stimuli/version1_gray_lm/id068_50L_U.png', '../stimuli/version1_gray_lm/id114_00C_C.png']",,,0.7726626396179199,0.8637323975563049,,
13784,626f83181a371c538416b293,Chrome,,main_task,0.0,2.0,chris,"5/2/2022, 12:07:04 AM",hgdn3jchvl76kthdexth,0.0-186.0,pilot_sona_afc2,,,,,,,,1885.5,,369941.0,0.0,201.0,29.0,retrieval,,,,,,,,,,,,,,,,,,,,,,,,,,,,,,,,40,,,,50L,-50,,,,,,,,,,,,,,,,,,,,,"{'muct_id': '42', 'lighting': 'q', 'race_guess': 'u', 'gender_guess': 'w', 'quality': '2', 'quality_eyes': '3', 'quality_mouth': '3', 'quality_ears': '2', 'quality_hair': '3', 'quality_neck': '3', 'facial_hair': '0.0', 'notes': 'mouth', 'race_common': 'white', 'gender_common': 'woman'}","{'muct_id': '25', 'lighting': 'r', 'race_guess': 'b', 'gender_guess': 'm', 'quality': '3', 'quality_eyes': '3', 'quality_mouth': '3', 'quality_ears': '3', 'quality_hair': '3', 'quality_neck': '3', 'facial_hair': '2.0', 'notes': None, 'race_common': 'black', 'gender_common': 'man'}",woman,031,0.0,white,00C,C,113,oddity,man,021,1.0,7.0,25R,U,black,25L,U,"['../stimuli/version1_gray_lm/id031_00C_C.png', '../stimuli/version1_gray_lm/id021_25L_U.png']",,,0.8678648471832275,0.8158704042434692,,
13785,626f831d1a371c538416b294,Chrome,,main_task,1.0,2.0,chris,"5/2/2022, 12:07:09 AM",hgdn3jchvl76kthdexth,0.0-188.0,pilot_sona_afc2,,,,,,,,4607.699999809265,,375000.0,0.0,203.0,30.0,retrieval,,,,,,,,,,,,,,,,,,,,,,,,,,,,,,,,61,,,,00C,0,,,,,,,,,,,,,,,,,,,,,"{'muct_id': '433', 'lighting': 'x', 'race_guess': 'w', 'gender_guess': 'w', 'quality': '3', 'quality_eyes': '3', 'quality_mouth': '3', 'quality_ears': '3', 'quality_hair': '3', 'quality_neck': '3', 'facial_hair': '0.0', 'notes': None, 'race_common': 'white', 'gender_common': 'woman'}","{'muct_id': '241', 'lighting': 't', 'race_guess': 'u', 'gender_guess': 'm', 'quality': '3', 'quality_eyes': '3', 'quality_mouth': '3', 'quality_ears': '3', 'quality_hair': '3', 'quality_neck': '3', 'facial_hair': '1.0', 'notes': 'mouth', 'race_common': 'black', 'gender_common': 'man'}",woman,125,0.0,white,00C,C,004,oddity,man,081,1.0,38.0,25L,C,black,25L,C,"['../stimuli/version1_gray_lm/id125_00C_C.png', '../stimuli/version1_gray_lm/id081_25L_C.png']",,,0.8504757285118103,0.8626909852027893,,
13786,626f83211a371c538416b295,Chrome,,main_task,1.0,1.0,chris,"5/2/2022, 12:07:13 AM",hgdn3jchvl76kthdexth,0.0-190.0,pilot_sona_afc2,,,,,,,,3148.2000000476837,,378502.0,0.0,205.0,31.0,retrieval,,,,,,,,,,,,,,,,,,,,,,,,,,,,,,,,38,,,,50L,-50,,,,,,,,,,,,,,,,,,,,,"{'muct_id': '218', 'lighting': 't', 'race_guess': 'b', 'gender_guess': 'w', 'quality': '3', 'quality_eyes': '3', 'quality_mouth': '3', 'quality_ears': '3', 'quality_hair': '3', 'quality_neck': '3', 'facial_hair': '0.0', 'notes': None, 'race_common': 'black', 'gender_common': 'woman'}","{'muct_id': '446', 'lighting': 'w', 'race_guess': 'w', 'gender_guess': 'w', 'quality': '3', 'quality_eyes': '3', 'quality_mouth': '3', 'quality_ears': '3', 'quality_hair': '3', 'quality_neck': '3', 'facial_hair': '0.0', 'notes': None, 'race_common': 'white', 'gender_common': 'woman'}",woman,069,1.0,black,25L,U,003,oddity,woman,152,0.0,2.0,00C,D,white,50L,D,"['../stimuli/version1_gray_lm/id152_50L_D.png', '../stimuli/version1_gray_lm/id069_25L_U.png']",,,0.8012693524360657,0.8143555521965027,,
13787,626f83241a371c538416b296,Chrome,,main_task,0.0,1.0,chris,"5/2/2022, 12:07:16 AM",hgdn3jchvl76kthdexth,0.0-192.0,pilot_sona_afc2,,,,,,,,3065.0999999046326,,382064.0,0.0,207.0,32.0,retrieval,,,,,,,,,,,,,,,,,,,,,,,,,,,,,,,,68,,,,50L,-50,,,,,,,,,,,,,,,,,,,,,"{'muct_id': '57', 'lighting': 'r', 'race_guess': 'b', 'gender_guess': 'w', 'quality': '3', 'quality_eyes': '3', 'quality_mouth': '3', 'quality_ears': '3', 'quality_hair': '3', 'quality_neck': '3', 'facial_hair': '0.0', 'notes': 'earrings', 'race_common': 'white', 'gender_common': 'woman'}","{'muct_id': '616', 'lighting': 'y', 'race_guess': 'b', 'gender_guess': 'w', 'quality': '3', 'quality_eyes': '3', 'quality_mouth': '3', 'quality_ears': '3', 'quality_hair': '3', 'quality_neck': '3', 'facial_hair': '0.0', 'notes': 'earrings', 'race_common': 'black', 'gender_common': 'woman'}",woman,042,1.0,white,00C,C,046,oddity,woman,136,0.0,10.0,50R,U,black,00C,U,"['../stimuli/version1_gray_lm/id136_00C_U.png', '../stimuli/version1_gray_lm/id042_00C_C.png']",,,0.8433798551559448,0.8299121856689453,,
13788,626f83271a371c538416b297,Chrome,,main_task,0.0,1.0,chris,"5/2/2022, 12:07:19 AM",hgdn3jchvl76kthdexth,0.0-194.0,pilot_sona_afc2,,,,,,,,1825.2999999523163,,384601.0,0.0,209.0,33.0,retrieval,,,,,,,,,,,,,,,,,,,,,,,,,,,,,,,,68,,,,00C,0,,,,,,,,,,,,,,,,,,,,,"{'muct_id': '264', 'lighting': 't', 'race_guess': 'w', 'gender_guess': 'm', 'quality': '3', 'quality_eyes': '3', 'quality_mouth': '3', 'quality_ears': '3', 'quality_hair': '3', 'quality_neck': '3', 'facial_hair': '0.0', 'notes': None, 'race_common': 'white', 'gender_common': 'man'}","{'muct_id': '421', 'lighting': 'x', 'race_guess': 'b', 'gender_guess': 'w', 'quality': '3', 'quality_eyes': '3', 'quality_mouth': '3', 'quality_ears': '3', 'quality_hair': '3', 'quality_neck': '3', 'facial_hair': '0.0', 'notes': None, 'race_common': 'black', 'gender_common': 'woman'}",man,094,1.0,white,00C,D,060,oddity,woman,120,0.0,26.0,25R,D,black,25R,D,"['../stimuli/version1_gray_lm/id120_25R_D.png', '../stimuli/version1_gray_lm/id094_00C_D.png']",,,0.862555205821991,0.8439685702323914,,
13789,626f832a1a371c538416b298,Chrome,,main_task,0.0,1.0,chris,"5/2/2022, 12:07:22 AM",hgdn3jchvl76kthdexth,0.0-196.0,pilot_sona_afc2,,,,,,,,2560.5,,387693.0,0.0,211.0,34.0,retrieval,,,,,,,,,,,,,,,,,,,,,,,,,,,,,,,,82,,,,50R,50,,,,,,,,,,,,,,,,,,,,,"{'muct_id': '214', 'lighting': 'u', 'race_guess': 'b', 'gender_guess': 'w', 'quality': '2', 'quality_eyes': '2', 'quality_mouth': '3', 'quality_ears': '3', 'quality_hair': '3', 'quality_neck': '3', 'facial_hair': '0.0', 'notes': None, 'race_common': 'black', 'gender_common': 'woman'}","{'muct_id': '75', 'lighting': 'q', 'race_guess': 'w', 'gender_guess': 'm', 'quality': '3', 'quality_eyes': '3', 'quality_mouth': '3', 'quality_ears': '3', 'quality_hair': '3', 'quality_neck': '3', 'facial_hair': '4.0', 'notes': 'beard', 'race_common': 'white', 'gender_common': 'man'}",woman,144,1.0,black,00C,C,002,oddity,man,052,0.0,20.0,25L,U,white,25R,U,"['../stimuli/version1_gray_lm/id052_25R_U.png', '../stimuli/version1_gray_lm/id144_00C_C.png']",,,0.7981672286987305,0.8309012055397034,,
13790,626f832c1a371c538416b299,Chrome,,main_task,0.0,2.0,chris,"5/2/2022, 12:07:24 AM",hgdn3jchvl76kthdexth,0.0-198.0,pilot_sona_afc2,,,,,,,,2168.9000000953674,,390295.0,0.0,213.0,35.0,retrieval,,,,,,,,,,,,,,,,,,,,,,,,,,,,,,,,14,,,,50L,-50,,,,,,,,,,,,,,,,,,,,,"{'muct_id': '64', 'lighting': 'q', 'race_guess': 'w', 'gender_guess': 'm', 'quality': '3', 'quality_eyes': '3', 'quality_mouth': '3', 'quality_ears': '3', 'quality_hair': '3', 'quality_neck': '3', 'facial_hair': '0.0', 'notes': None, 'race_common': 'white', 'gender_common': 'man'}","{'muct_id': '81', 'lighting': 'q', 'race_guess': 'b', 'gender_guess': 'm', 'quality': '3', 'quality_eyes': '3', 'quality_mouth': '3', 'quality_ears': '3', 'quality_hair': '3', 'quality_neck': '3', 'facial_hair': '0.0', 'notes': None, 'race_common': 'black', 'gender_common': 'man'}",man,047,0.0,white,25L,C,098,oddity,man,055,1.0,24.0,25R,D,black,25L,D,"['../stimuli/version1_gray_lm/id047_25L_C.png', '../stimuli/version1_gray_lm/id055_25L_D.png']",,,0.8436239957809448,0.8493728041648865,,
13791,626f832f1a371c538416b29a,Chrome,,main_task,1.0,2.0,chris,"5/2/2022, 12:07:27 AM",hgdn3jchvl76kthdexth,0.0-200.0,pilot_sona_afc2,,,,,,,,2566.7999999523163,,393400.0,0.0,215.0,36.0,retrieval,,,,,,,,,,,,,,,,,,,,,,,,,,,,,,,,75,,,,50R,50,,,,,,,,,,,,,,,,,,,,,"{'muct_id': '7', 'lighting': 's', 'race_guess': 'u', 'gender_guess': 'w', 'quality': '3', 'quality_eyes': '3', 'quality_mouth': '3', 'quality_ears': '3', 'quality_hair': '3', 'quality_neck': '3', 'facial_hair': '0.0', 'notes': None, 'race_common': 'white', 'gender_common': 'woman'}","{'muct_id': '436', 'lighting': 'w', 'race_guess': 'b', 'gender_guess': 'm', 'quality': '3', 'quality_eyes': '3', 'quality_mouth': '3', 'quality_ears': '3', 'quality_hair': '3', 'quality_neck': '3', 'facial_hair': '3.0', 'notes': 'beard', 'race_common': 'black', 'gender_common': 'man'}",woman,007,0.0,white,25L,D,122,oddity,man,128,1.0,23.0,25L,C,black,25R,C,"['../stimuli/version1_gray_lm/id007_25L_D.png', '../stimuli/version1_gray_lm/id128_25R_C.png']",,,0.8543177247047424,0.7975906729698181,,
