,_id,rt,stimulus,response,trial_type,trial_index,time_elapsed,internal_node_id,subject_id,study_id,session_id,last_trial_type,experiment_id,datetime,browser,collection,database,iteration,choice,choice_category,choice_object,correct,correct_response,key_press,oddity_category,oddity_index,oddity_name,oddity_type,timed_out,trial_number,typical_category,typical_indices,typical_name,variation_level,meta_new,meta_old,new_gender,new_identity,new_index,new_mb,new_race,new_tiltLR,new_tiltUD,old_gender,old_identity,old_index,old_mb,old_original_index,old_original_tiltLR,old_original_tiltUD,old_race,old_tiltLR,old_tiltUD,slider_start,stimuli,tilt_change,tilt_difference,experimental_duration,filler_accuracy,filler_avg_rt,filler_n_trials,params,retrieval_accuracy,retrieval_avg_rt,retrieval_n_trials,total_bonus,total_payment,age,gender,gender_other,latinx,race
0,633e4ae99cb434415f3c1ec1,1289,<p style='font-size: 150%'><b>You have finished Part 1!</b></p><p>Click 'Next' to continue to Part 2.</p>,0.0,bonus_update,83,191972,0.0-83.0,60563ce2975183fc53db9f8a,633e47989d9c0ed6dfbfb57b,633e4a231232c3e826d6d7ea,encoding,ck3qyznsbs531jd13del,"10/5/2022, 9:26:34 PM",Chrome,task_exp2,chris,pilot_prolific_exp2,,,,,,,,,,,,,,,,,,,,,,,,,,,,,,,,,,,,,,,,,,,,,,,,,,,,,,
1,633e4b269cb434415f3c1ec2,1952,"['../stimuli/objectome/2417.jpeg', '../stimuli/objectome/2834.jpeg', '../stimuli/objectome/2408.jpeg']",,filler,85,252280,0.0-85.0-0.0,60563ce2975183fc53db9f8a,633e47989d9c0ed6dfbfb57b,633e4a231232c3e826d6d7ea,,ck3qyznsbs531jd13del,"10/5/2022, 9:27:34 PM",Chrome,task_exp2,chris,pilot_prolific_exp2,1.0,planes,f16,False,2.0,arrowleft,planes,2834.0,junkers88,within,False,1.0,planes,"[2417, 2408]",f16,V3,,,,,,,,,,,,,,,,,,,,,,,,,,,,,,,,,,,,,,
2,633e4b2a9cb434415f3c1ec3,2022,"['../stimuli/objectome/2417.jpeg', '../stimuli/objectome/2834.jpeg', '../stimuli/objectome/2408.jpeg']",,filler,87,256868,0.0-85.1-0.1,60563ce2975183fc53db9f8a,633e47989d9c0ed6dfbfb57b,633e4a231232c3e826d6d7ea,,ck3qyznsbs531jd13del,"10/5/2022, 9:27:38 PM",Chrome,task_exp2,chris,pilot_prolific_exp2,2.0,planes,junkers88,True,2.0,arrowright,planes,2834.0,junkers88,within,False,2.0,planes,"[2417, 2408]",f16,V3,,,,,,,,,,,,,,,,,,,,,,,,,,,,,,,,,,,,,,
3,633e4b319cb434415f3c1ec4,3239,"['../stimuli/objectome/1570.jpeg', '../stimuli/objectome/1430.jpeg', '../stimuli/objectome/1571.jpeg']",,filler,89,263371,0.0-86.0-0.0,60563ce2975183fc53db9f8a,633e47989d9c0ed6dfbfb57b,633e4a231232c3e826d6d7ea,,ck3qyznsbs531jd13del,"10/5/2022, 9:27:45 PM",Chrome,task_exp2,chris,pilot_prolific_exp2,2.0,chairs,_011,True,2.0,arrowright,chairs,1430.0,_011,within,False,3.0,chairs,"[1570, 1571]",_033,V3,,,,,,,,,,,,,,,,,,,,,,,,,,,,,,,,,,,,,,
4,633e4b369cb434415f3c1ec5,2150,"['../stimuli/objectome/1514.jpeg', '../stimuli/objectome/2843.jpeg', '../stimuli/objectome/1492.jpeg']",,filler,91,268743,0.0-87.0-0.0,60563ce2975183fc53db9f8a,633e47989d9c0ed6dfbfb57b,633e4a231232c3e826d6d7ea,,ck3qyznsbs531jd13del,"10/5/2022, 9:27:50 PM",Chrome,task_exp2,chris,pilot_prolific_exp2,3.0,planes,_01_Airliner_2jetEngines,False,2.0,arrowdown,planes,2843.0,mig29,within,False,4.0,planes,"[1514, 1492]",_01_Airliner_2jetEngines,V3,,,,,,,,,,,,,,,,,,,,,,,,,,,,,,,,,,,,,,
5,633e4b3a9cb434415f3c1ec6,1496,"['../stimuli/objectome/1514.jpeg', '../stimuli/objectome/2843.jpeg', '../stimuli/objectome/1492.jpeg']",,filler,93,272219,0.0-87.1-0.1,60563ce2975183fc53db9f8a,633e47989d9c0ed6dfbfb57b,633e4a231232c3e826d6d7ea,,ck3qyznsbs531jd13del,"10/5/2022, 9:27:54 PM",Chrome,task_exp2,chris,pilot_prolific_exp2,2.0,planes,mig29,True,2.0,arrowright,planes,2843.0,mig29,within,False,5.0,planes,"[1514, 1492]",_01_Airliner_2jetEngines,V3,,,,,,,,,,,,,,,,,,,,,,,,,,,,,,,,,,,,,,
6,633e4b409cb434415f3c1ec7,2231,"['../stimuli/objectome/1218.jpeg', '../stimuli/objectome/883.jpeg', '../stimuli/objectome/1219.jpeg']",,filler,96,278353,0.0-89.0,60563ce2975183fc53db9f8a,633e47989d9c0ed6dfbfb57b,633e4a231232c3e826d6d7ea,,ck3qyznsbs531jd13del,"10/5/2022, 9:28:00 PM",Chrome,task_exp2,chris,pilot_prolific_exp2,2.0,animals,ELEPHANT_M,True,2.0,arrowright,animals,883.0,ELEPHANT_M,within,False,6.0,animals,"[1218, 1219]",TURTLE_L,V3,,,,,,,,,,,,,,,,,,,,,,,,,,,,,,,,,,,,,,
7,633e4b439cb434415f3c1ec8,1859,"['../stimuli/objectome/1314.jpeg', '../stimuli/objectome/1474.jpeg', '../stimuli/objectome/1315.jpeg']",,filler,98,281397,0.0-91.0,60563ce2975183fc53db9f8a,633e47989d9c0ed6dfbfb57b,633e4a231232c3e826d6d7ea,,ck3qyznsbs531jd13del,"10/5/2022, 9:28:03 PM",Chrome,task_exp2,chris,pilot_prolific_exp2,2.0,chairs,_014,True,2.0,arrowright,chairs,1474.0,_014,within,False,7.0,chairs,"[1314, 1315]",_004,V3,,,,,,,,,,,,,,,,,,,,,,,,,,,,,,,,,,,,,,
8,633e4b469cb434415f3c1ec9,1924,"['../stimuli/objectome/531.jpeg', '../stimuli/objectome/377.jpeg', '../stimuli/objectome/530.jpeg']",,filler,100,284307,0.0-93.0,60563ce2975183fc53db9f8a,633e47989d9c0ed6dfbfb57b,633e4a231232c3e826d6d7ea,,ck3qyznsbs531jd13del,"10/5/2022, 9:28:06 PM",Chrome,task_exp2,chris,pilot_prolific_exp2,2.0,animals,blCow,True,2.0,arrowright,animals,377.0,blCow,within,False,8.0,animals,"[531, 530]",hedgehog,V0,,,,,,,,,,,,,,,,,,,,,,,,,,,,,,,,,,,,,,
9,633e4b489cb434415f3c1eca,1451,"['../stimuli/objectome/1546.jpeg', '../stimuli/objectome/1265.jpeg', '../stimuli/objectome/1558.jpeg']",,filler,102,286612,0.0-95.0,60563ce2975183fc53db9f8a,633e47989d9c0ed6dfbfb57b,633e4a231232c3e826d6d7ea,,ck3qyznsbs531jd13del,"10/5/2022, 9:28:08 PM",Chrome,task_exp2,chris,pilot_prolific_exp2,2.0,chairs,_001,True,2.0,arrowright,chairs,1265.0,_001,within,False,9.0,chairs,"[1546, 1558]",_031,V3,,,,,,,,,,,,,,,,,,,,,,,,,,,,,,,,,,,,,,
10,633e4b4a9cb434415f3c1ecb,1093,"['../stimuli/objectome/917.jpeg', '../stimuli/objectome/1207.jpeg', '../stimuli/objectome/891.jpeg']",,filler,104,288288,0.0-97.0,60563ce2975183fc53db9f8a,633e47989d9c0ed6dfbfb57b,633e4a231232c3e826d6d7ea,,ck3qyznsbs531jd13del,"10/5/2022, 9:28:10 PM",Chrome,task_exp2,chris,pilot_prolific_exp2,2.0,animals,TURTLE_L,True,2.0,arrowright,animals,1207.0,TURTLE_L,within,False,10.0,animals,"[917, 891]",ELEPHANT_M,V3,,,,,,,,,,,,,,,,,,,,,,,,,,,,,,,,,,,,,,
11,633e4b4c9cb434415f3c1ecc,1472,"['../stimuli/objectome/1280.jpeg', '../stimuli/objectome/1317.jpeg', '../stimuli/objectome/1355.jpeg']",,filler,106,290323,0.0-99.0,60563ce2975183fc53db9f8a,633e47989d9c0ed6dfbfb57b,633e4a231232c3e826d6d7ea,,ck3qyznsbs531jd13del,"10/5/2022, 9:28:12 PM",Chrome,task_exp2,chris,pilot_prolific_exp2,3.0,chairs,_008,True,3.0,arrowdown,chairs,1355.0,_008,within,False,11.0,chairs,"[1280, 1317]",_004,V3,,,,,,,,,,,,,,,,,,,,,,,,,,,,,,,,,,,,,,
12,633e4b4e9cb434415f3c1ecd,2152,"['../stimuli/objectome/2869.jpeg', '../stimuli/objectome/2858.jpeg', '../stimuli/objectome/1495.jpeg']",,filler,108,293103,0.0-101.0,60563ce2975183fc53db9f8a,633e47989d9c0ed6dfbfb57b,633e4a231232c3e826d6d7ea,,ck3qyznsbs531jd13del,"10/5/2022, 9:28:15 PM",Chrome,task_exp2,chris,pilot_prolific_exp2,3.0,planes,_01_Airliner_2jetEngines,True,3.0,arrowdown,planes,1495.0,_01_Airliner_2jetEngines,within,False,12.0,planes,"[2869, 2858]",mig29,V3,,,,,,,,,,,,,,,,,,,,,,,,,,,,,,,,,,,,,,
13,633e4b519cb434415f3c1ece,1868,"['../stimuli/objectome/2439.jpeg', '../stimuli/objectome/2992.jpeg', '../stimuli/objectome/2404.jpeg']",,filler,110,295663,0.0-103.0,60563ce2975183fc53db9f8a,633e47989d9c0ed6dfbfb57b,633e4a231232c3e826d6d7ea,,ck3qyznsbs531jd13del,"10/5/2022, 9:28:17 PM",Chrome,task_exp2,chris,pilot_prolific_exp2,2.0,planes,rdbarren,True,2.0,arrowright,planes,2992.0,rdbarren,within,False,13.0,planes,"[2439, 2404]",f16,V3,,,,,,,,,,,,,,,,,,,,,,,,,,,,,,,,,,,,,,
14,633e4b539cb434415f3c1ecf,1438,"['../stimuli/objectome/226.jpeg', '../stimuli/objectome/169.jpeg', '../stimuli/objectome/220.jpeg']",,filler,112,297715,0.0-105.0,60563ce2975183fc53db9f8a,633e47989d9c0ed6dfbfb57b,633e4a231232c3e826d6d7ea,,ck3qyznsbs531jd13del,"10/5/2022, 9:28:19 PM",Chrome,task_exp2,chris,pilot_prolific_exp2,2.0,chairs,_004,True,2.0,arrowright,chairs,169.0,_004,within,False,14.0,chairs,"[226, 220]",_031,V0,,,,,,,,,,,,,,,,,,,,,,,,,,,,,,,,,,,,,,
15,633e4b569cb434415f3c1ed0,2221,"['../stimuli/objectome/1622.jpeg', '../stimuli/objectome/1635.jpeg', '../stimuli/objectome/2415.jpeg']",,filler,114,300509,0.0-107.0,60563ce2975183fc53db9f8a,633e47989d9c0ed6dfbfb57b,633e4a231232c3e826d6d7ea,,ck3qyznsbs531jd13del,"10/5/2022, 9:28:22 PM",Chrome,task_exp2,chris,pilot_prolific_exp2,3.0,planes,f16,True,3.0,arrowdown,planes,2415.0,f16,within,False,15.0,planes,"[1622, 1635]",_05_future,V3,,,,,,,,,,,,,,,,,,,,,,,,,,,,,,,,,,,,,,
16,633e4b589cb434415f3c1ed1,1699,"['../stimuli/objectome/1303.jpeg', '../stimuli/objectome/1302.jpeg', '../stimuli/objectome/1321.jpeg']",,filler,116,302773,0.0-109.0,60563ce2975183fc53db9f8a,633e47989d9c0ed6dfbfb57b,633e4a231232c3e826d6d7ea,,ck3qyznsbs531jd13del,"10/5/2022, 9:28:24 PM",Chrome,task_exp2,chris,pilot_prolific_exp2,3.0,chairs,_008,True,3.0,arrowdown,chairs,1321.0,_008,within,False,16.0,chairs,"[1303, 1302]",_004,V3,,,,,,,,,,,,,,,,,,,,,,,,,,,,,,,,,,,,,,
17,633e4b5b9cb434415f3c1ed2,2542,"['../stimuli/objectome/1840.jpeg', '../stimuli/objectome/1848.jpeg', '../stimuli/objectome/2427.jpeg']",,filler,118,305916,0.0-111.0,60563ce2975183fc53db9f8a,633e47989d9c0ed6dfbfb57b,633e4a231232c3e826d6d7ea,,ck3qyznsbs531jd13del,"10/5/2022, 9:28:27 PM",Chrome,task_exp2,chris,pilot_prolific_exp2,3.0,planes,f16,True,3.0,arrowdown,planes,2427.0,f16,within,False,17.0,planes,"[1840, 1848]",_19_flyingBoat,V3,,,,,,,,,,,,,,,,,,,,,,,,,,,,,,,,,,,,,,
18,633e4b5d9cb434415f3c1ed3,1560,"['../stimuli/objectome/902.jpeg', '../stimuli/objectome/2241.jpeg', '../stimuli/objectome/2250.jpeg']",,filler,120,308012,0.0-113.0,60563ce2975183fc53db9f8a,633e47989d9c0ed6dfbfb57b,633e4a231232c3e826d6d7ea,,ck3qyznsbs531jd13del,"10/5/2022, 9:28:30 PM",Chrome,task_exp2,chris,pilot_prolific_exp2,1.0,animals,ELEPHANT_M,True,1.0,arrowleft,animals,902.0,ELEPHANT_M,within,False,18.0,animals,"[2241, 2250]",breed_pug,V3,,,,,,,,,,,,,,,,,,,,,,,,,,,,,,,,,,,,,,
19,633e4b5f9cb434415f3c1ed4,1571,"['../stimuli/objectome/2266.jpeg', '../stimuli/objectome/932.jpeg', '../stimuli/objectome/2240.jpeg']",,filler,122,310147,0.0-115.0,60563ce2975183fc53db9f8a,633e47989d9c0ed6dfbfb57b,633e4a231232c3e826d6d7ea,,ck3qyznsbs531jd13del,"10/5/2022, 9:28:32 PM",Chrome,task_exp2,chris,pilot_prolific_exp2,2.0,animals,GORILLA,True,2.0,arrowright,animals,932.0,GORILLA,within,False,19.0,animals,"[2266, 2240]",breed_pug,V3,,,,,,,,,,,,,,,,,,,,,,,,,,,,,,,,,,,,,,
20,633e4b619cb434415f3c1ed5,1209,"['../stimuli/objectome/1382.jpeg', '../stimuli/objectome/1339.jpeg', '../stimuli/objectome/1364.jpeg']",,filler,124,311902,0.0-117.0,60563ce2975183fc53db9f8a,633e47989d9c0ed6dfbfb57b,633e4a231232c3e826d6d7ea,,ck3qyznsbs531jd13del,"10/5/2022, 9:28:33 PM",Chrome,task_exp2,chris,pilot_prolific_exp2,2.0,chairs,_008,True,2.0,arrowright,chairs,1339.0,_008,within,False,20.0,chairs,"[1382, 1364]",_010,V3,,,,,,,,,,,,,,,,,,,,,,,,,,,,,,,,,,,,,,
21,633e4b639cb434415f3c1ed6,989,"['../stimuli/objectome/2082.jpeg', '../stimuli/objectome/960.jpeg', '../stimuli/objectome/2114.jpeg']",,filler,126,313446,0.0-119.0,60563ce2975183fc53db9f8a,633e47989d9c0ed6dfbfb57b,633e4a231232c3e826d6d7ea,,ck3qyznsbs531jd13del,"10/5/2022, 9:28:35 PM",Chrome,task_exp2,chris,pilot_prolific_exp2,2.0,animals,LIONESS,True,2.0,arrowright,animals,960.0,LIONESS,within,False,21.0,animals,"[2082, 2114]",bear,V3,,,,,,,,,,,,,,,,,,,,,,,,,,,,,,,,,,,,,,
22,633e4b639cb434415f3c1ed7,2017,<p style='font-size: 150%'><b>You have finished Part 1!</b></p><p>Click 'Next' to continue to Part 2.</p>,0.0,bonus_update,83,238532,0.0-83.0,5980128635fbf100017d0861,633e47989d9c0ed6dfbfb57b,633e4a35f3d5004ca815a742,encoding,5jexjydso237vdyzk0bg,"5/10/2022, 23:28:40",Chrome,task_exp2,chris,pilot_prolific_exp2,,,,,,,,,,,,,,,,,,,,,,,,,,,,,,,,,,,,,,,,,,,,,,,,,,,,,,
23,633e4b659cb434415f3c1ed8,1342,"['../stimuli/objectome/2276.jpeg', '../stimuli/objectome/2253.jpeg', '../stimuli/objectome/917.jpeg']",,filler,128,315303,0.0-121.0,60563ce2975183fc53db9f8a,633e47989d9c0ed6dfbfb57b,633e4a231232c3e826d6d7ea,,ck3qyznsbs531jd13del,"10/5/2022, 9:28:37 PM",Chrome,task_exp2,chris,pilot_prolific_exp2,3.0,animals,ELEPHANT_M,True,3.0,arrowdown,animals,917.0,ELEPHANT_M,within,False,22.0,animals,"[2276, 2253]",breed_pug,V3,,,,,,,,,,,,,,,,,,,,,,,,,,,,,,,,,,,,,,
24,633e4b6a9cb434415f3c1ed9,4758,"<p style='font-size: 150%'><b>You have finished Part 2!</b></p><p>Nice job! On this section, you averaged <b>91% accuracy</b>.</p><p>You're on track to earn a good bonus. Keep up the good work!</p><p>Click 'Next' to continue to Part 3.</p>",0.0,bonus_update,130,320554,0.0-123.0,60563ce2975183fc53db9f8a,633e47989d9c0ed6dfbfb57b,633e4a231232c3e826d6d7ea,filler,ck3qyznsbs531jd13del,"10/5/2022, 9:28:42 PM",Chrome,task_exp2,chris,pilot_prolific_exp2,,,,,,,,,,,,,,,,,,,,,,,,,,,,,,,,,,,,,,,,,,,,,,,,,,,,,,
25,633e4b979cb434415f3c1eda,1851,"['../stimuli/objectome/2876.jpeg', '../stimuli/objectome/2434.jpeg', '../stimuli/objectome/2424.jpeg']",,filler,85,290281,0.0-85.0-0.0,5980128635fbf100017d0861,633e47989d9c0ed6dfbfb57b,633e4a35f3d5004ca815a742,,5jexjydso237vdyzk0bg,"5/10/2022, 23:29:32",Chrome,task_exp2,chris,pilot_prolific_exp2,3.0,planes,f16,False,1.0,arrowdown,planes,2876.0,mig29,within,False,1.0,planes,"[2434, 2424]",f16,V3,,,,,,,,,,,,,,,,,,,,,,,,,,,,,,,,,,,,,,
26,633e4ba29cb434415f3c1edb,5204,"['../stimuli/objectome/2876.jpeg', '../stimuli/objectome/2434.jpeg', '../stimuli/objectome/2424.jpeg']",,filler,87,301080,0.0-85.1-0.1,5980128635fbf100017d0861,633e47989d9c0ed6dfbfb57b,633e4a35f3d5004ca815a742,,5jexjydso237vdyzk0bg,"5/10/2022, 23:29:43",Chrome,task_exp2,chris,pilot_prolific_exp2,1.0,planes,mig29,True,1.0,arrowleft,planes,2876.0,mig29,within,False,2.0,planes,"[2434, 2424]",f16,V3,,,,,,,,,,,,,,,,,,,,,,,,,,,,,,,,,,,,,,
27,633e4ba89cb434415f3c1edc,1911,"['../stimuli/objectome/3036.jpeg', '../stimuli/objectome/2844.jpeg', '../stimuli/objectome/3029.jpeg']",,filler,89,306649,0.0-86.0-0.0,5980128635fbf100017d0861,633e47989d9c0ed6dfbfb57b,633e4a35f3d5004ca815a742,,5jexjydso237vdyzk0bg,"5/10/2022, 23:29:48",Chrome,task_exp2,chris,pilot_prolific_exp2,2.0,planes,mig29,True,2.0,arrowright,planes,2844.0,mig29,within,False,3.0,planes,"[3036, 3029]",sopwith,V3,,,,,,,,,,,,,,,,,,,,,,,,,,,,,,,,,,,,,,
28,633e4bb19cb434415f3c1edd,4687,"['../stimuli/objectome/1615.jpeg', '../stimuli/objectome/3012.jpeg', '../stimuli/objectome/1637.jpeg']",,filler,91,315641,0.0-87.0-0.0,5980128635fbf100017d0861,633e47989d9c0ed6dfbfb57b,633e4a35f3d5004ca815a742,,5jexjydso237vdyzk0bg,"5/10/2022, 23:29:57",Chrome,task_exp2,chris,pilot_prolific_exp2,1.0,planes,_05_future,False,2.0,arrowleft,planes,3012.0,sopwith,within,False,4.0,planes,"[1615, 1637]",_05_future,V3,,,,,,,,,,,,,,,,,,,,,,,,,,,,,,,,,,,,,,
29,633e4bb69cb434415f3c1ede,3761,<p><img src='../stimuli/version1_gray_lm/id145_25L_C.png' ></img><img src='../stimuli/version1_gray_lm/id032_00C_D.png' ></img></p>,100.0,retrieval_practice,132,396807,0.0-125.0-0.0,60563ce2975183fc53db9f8a,633e47989d9c0ed6dfbfb57b,633e4a231232c3e826d6d7ea,,ck3qyznsbs531jd13del,"10/5/2022, 9:29:58 PM",Chrome,task_exp2,chris,pilot_prolific_exp2,,,,True,2.0,,,,,,,1.0,,,,,"{'muct_id': '230', 'lighting': 'u', 'race_guess': 'w', 'gender_guess': 'm', 'quality': '3', 'quality_eyes': '3', 'quality_mouth': '3', 'quality_ears': '3', 'quality_hair': '3', 'quality_neck': '3', 'facial_hair': '0.0', 'notes': 'hair', 'race_common': 'white', 'gender_common': 'man'}","{'muct_id': '43', 'lighting': 'q', 'race_guess': 'w', 'gender_guess': 'm', 'quality': '3', 'quality_eyes': '3', 'quality_mouth': '3', 'quality_ears': '3', 'quality_hair': '3', 'quality_neck': '3', 'facial_hair': '0.0', 'notes': None, 'race_common': 'white', 'gender_common': 'man'}",man,145,0.0,0.8171766996383667,white,25L,C,man,032,1.0,0.8732470870018005,24.0,00C,D,white,00C,D,50.0,"['../stimuli/version1_gray_lm/id145_25L_C.png', '../stimuli/version1_gray_lm/id032_00C_D.png']",00C,0.0,,,,,,,,,,,,,,,
30,633e4bb89cb434415f3c1edf,4110,"['../stimuli/objectome/1615.jpeg', '../stimuli/objectome/3012.jpeg', '../stimuli/objectome/1637.jpeg']",,filler,93,323073,0.0-87.1-0.1,5980128635fbf100017d0861,633e47989d9c0ed6dfbfb57b,633e4a35f3d5004ca815a742,,5jexjydso237vdyzk0bg,"5/10/2022, 23:30:05",Chrome,task_exp2,chris,pilot_prolific_exp2,2.0,planes,sopwith,True,2.0,arrowright,planes,3012.0,sopwith,within,False,5.0,planes,"[1615, 1637]",_05_future,V3,,,,,,,,,,,,,,,,,,,,,,,,,,,,,,,,,,,,,,
31,633e4bba9cb434415f3c1ee0,3177,<p><img src='../stimuli/version1_gray_lm/id136_25R_C.png' ></img><img src='../stimuli/version1_gray_lm/id085_25R_U.png' ></img></p>,0.0,retrieval_practice,134,400983,0.0-126.0-0.0,60563ce2975183fc53db9f8a,633e47989d9c0ed6dfbfb57b,633e4a231232c3e826d6d7ea,,ck3qyznsbs531jd13del,"10/5/2022, 9:30:03 PM",Chrome,task_exp2,chris,pilot_prolific_exp2,,,,False,2.0,,,,,,,2.0,,,,,"{'muct_id': '616', 'lighting': 'y', 'race_guess': 'b', 'gender_guess': 'w', 'quality': '3', 'quality_eyes': '3', 'quality_mouth': '3', 'quality_ears': '3', 'quality_hair': '3', 'quality_neck': '3', 'facial_hair': '0.0', 'notes': 'earrings', 'race_common': 'black', 'gender_common': 'woman'}","{'muct_id': '249', 'lighting': 't', 'race_guess': 'b', 'gender_guess': 'w', 'quality': '2', 'quality_eyes': '2', 'quality_mouth': '3', 'quality_ears': '3', 'quality_hair': '3', 'quality_neck': '3', 'facial_hair': '0.0', 'notes': None, 'race_common': 'black', 'gender_common': 'man'}",woman,136,0.0,0.8221935629844666,black,25R,C,man,085,1.0,0.7786498069763184,25.0,50R,U,black,25R,U,50.0,"['../stimuli/version1_gray_lm/id136_25R_C.png', '../stimuli/version1_gray_lm/id085_25R_U.png']",25L,-25.0,,,,,,,,,,,,,,,
32,633e4bbe9cb434415f3c1ee1,2434,<p><img src='../stimuli/version1_gray_lm/id136_25R_C.png' ></img><img src='../stimuli/version1_gray_lm/id085_25R_U.png' ></img></p>,100.0,retrieval_practice,136,404994,0.0-126.1-0.1,60563ce2975183fc53db9f8a,633e47989d9c0ed6dfbfb57b,633e4a231232c3e826d6d7ea,,ck3qyznsbs531jd13del,"10/5/2022, 9:30:07 PM",Chrome,task_exp2,chris,pilot_prolific_exp2,,,,True,2.0,,,,,,,3.0,,,,,"{'muct_id': '616', 'lighting': 'y', 'race_guess': 'b', 'gender_guess': 'w', 'quality': '3', 'quality_eyes': '3', 'quality_mouth': '3', 'quality_ears': '3', 'quality_hair': '3', 'quality_neck': '3', 'facial_hair': '0.0', 'notes': 'earrings', 'race_common': 'black', 'gender_common': 'woman'}","{'muct_id': '249', 'lighting': 't', 'race_guess': 'b', 'gender_guess': 'w', 'quality': '2', 'quality_eyes': '2', 'quality_mouth': '3', 'quality_ears': '3', 'quality_hair': '3', 'quality_neck': '3', 'facial_hair': '0.0', 'notes': None, 'race_common': 'black', 'gender_common': 'man'}",woman,136,0.0,0.8221935629844666,black,25R,C,man,085,1.0,0.7786498069763184,25.0,50R,U,black,25R,U,50.0,"['../stimuli/version1_gray_lm/id136_25R_C.png', '../stimuli/version1_gray_lm/id085_25R_U.png']",25L,-25.0,,,,,,,,,,,,,,,
33,633e4bc39cb434415f3c1ee2,3523,<p><img src='../stimuli/version1_gray_lm/id114_50R_D.png' ></img><img src='../stimuli/version1_gray_lm/id050_50L_C.png' ></img></p>,0.0,retrieval_practice,138,409173,0.0-127.0-0.0,60563ce2975183fc53db9f8a,633e47989d9c0ed6dfbfb57b,633e4a231232c3e826d6d7ea,,ck3qyznsbs531jd13del,"10/5/2022, 9:30:11 PM",Chrome,task_exp2,chris,pilot_prolific_exp2,,,,True,1.0,,,,,,,4.0,,,,,"{'muct_id': '70', 'lighting': 'r', 'race_guess': 'w', 'gender_guess': 'm', 'quality': '3', 'quality_eyes': '3', 'quality_mouth': '3', 'quality_ears': '3', 'quality_hair': '3', 'quality_neck': '3', 'facial_hair': '4.0', 'notes': 'beard', 'race_common': 'white', 'gender_common': 'man'}","{'muct_id': '410', 'lighting': 'w', 'race_guess': 'w', 'gender_guess': 'w', 'quality': '3', 'quality_eyes': '3', 'quality_mouth': '3', 'quality_ears': '3', 'quality_hair': '3', 'quality_neck': '3', 'facial_hair': '0.0', 'notes': 'makeup mouth', 'race_common': 'white', 'gender_common': 'woman'}",man,050,1.0,0.8277873992919922,white,50L,C,woman,114,0.0,0.8246909379959106,33.0,25R,D,white,50R,D,50.0,"['../stimuli/version1_gray_lm/id114_50R_D.png', '../stimuli/version1_gray_lm/id050_50L_C.png']",25R,25.0,,,,,,,,,,,,,,,
34,633e4bc89cb434415f3c1ee3,2569,"['../stimuli/objectome/2770.jpeg', '../stimuli/objectome/2276.jpeg', '../stimuli/objectome/2787.jpeg']",,filler,96,339184,0.0-89.0,5980128635fbf100017d0861,633e47989d9c0ed6dfbfb57b,633e4a35f3d5004ca815a742,,5jexjydso237vdyzk0bg,"5/10/2022, 23:30:21",Chrome,task_exp2,chris,pilot_prolific_exp2,2.0,animals,breed_pug,True,2.0,arrowright,animals,2276.0,breed_pug,within,False,6.0,animals,"[2770, 2787]",hedgehog,V3,,,,,,,,,,,,,,,,,,,,,,,,,,,,,,,,,,,,,,
35,633e4bc99cb434415f3c1ee4,2530,<p><img src='../stimuli/version1_gray_lm/id059_25L_C.png' ></img><img src='../stimuli/version1_gray_lm/id128_25L_C.png' ></img></p>,0.0,retrieval,141,415650,0.0-129.0,60563ce2975183fc53db9f8a,633e47989d9c0ed6dfbfb57b,633e4a231232c3e826d6d7ea,,ck3qyznsbs531jd13del,"10/5/2022, 9:30:17 PM",Chrome,task_exp2,chris,pilot_prolific_exp2,,,,True,1.0,,,,,,,1.0,,,,,"{'muct_id': '436', 'lighting': 'w', 'race_guess': 'b', 'gender_guess': 'm', 'quality': '3', 'quality_eyes': '3', 'quality_mouth': '3', 'quality_ears': '3', 'quality_hair': '3', 'quality_neck': '3', 'facial_hair': '3.0', 'notes': 'beard', 'race_common': 'black', 'gender_common': 'man'}","{'muct_id': '86', 'lighting': 'q', 'race_guess': 'b', 'gender_guess': 'w', 'quality': '3', 'quality_eyes': '3', 'quality_mouth': '3', 'quality_ears': '3', 'quality_hair': '3', 'quality_neck': '3', 'facial_hair': '0.0', 'notes': 'earrings', 'race_common': 'black', 'gender_common': 'woman'}",man,128,1.0,0.8372965455055237,black,25L,C,woman,059,0.0,0.8140988945960999,7.0,25L,C,black,25L,C,50.0,"['../stimuli/version1_gray_lm/id059_25L_C.png', '../stimuli/version1_gray_lm/id128_25L_C.png']",00C,0.0,,,,,,,,,,,,,,,
36,633e4bcd9cb434415f3c1ee5,3262,"['../stimuli/objectome/1546.jpeg', '../stimuli/objectome/1538.jpeg', '../stimuli/objectome/1334.jpeg']",,filler,98,344073,0.0-91.0,5980128635fbf100017d0861,633e47989d9c0ed6dfbfb57b,633e4a35f3d5004ca815a742,,5jexjydso237vdyzk0bg,"5/10/2022, 23:30:26",Chrome,task_exp2,chris,pilot_prolific_exp2,3.0,chairs,_008,True,3.0,arrowdown,chairs,1334.0,_008,within,False,7.0,chairs,"[1546, 1538]",_031,V3,,,,,,,,,,,,,,,,,,,,,,,,,,,,,,,,,,,,,,
37,633e4bcd9cb434415f3c1ee6,3783,<p><img src='../stimuli/version1_gray_lm/id091_50L_C.png' ></img><img src='../stimuli/version1_gray_lm/id033_50R_D.png' ></img></p>,0.0,retrieval,143,420136,0.0-131.0,60563ce2975183fc53db9f8a,633e47989d9c0ed6dfbfb57b,633e4a231232c3e826d6d7ea,,ck3qyznsbs531jd13del,"10/5/2022, 9:30:22 PM",Chrome,task_exp2,chris,pilot_prolific_exp2,,,,True,1.0,,,,,,,2.0,,,,,"{'muct_id': '44', 'lighting': 'q', 'race_guess': 'u', 'gender_guess': 'm', 'quality': '3', 'quality_eyes': '3', 'quality_mouth': '3', 'quality_ears': '3', 'quality_hair': '3', 'quality_neck': '3', 'facial_hair': '2.0', 'notes': None, 'race_common': 'black', 'gender_common': 'man'}","{'muct_id': '260', 'lighting': 't', 'race_guess': 'b', 'gender_guess': 'm', 'quality': '3', 'quality_eyes': '3', 'quality_mouth': '3', 'quality_ears': '3', 'quality_hair': '3', 'quality_neck': '3', 'facial_hair': '4.0', 'notes': 'beard', 'race_common': 'black', 'gender_common': 'man'}",man,033,1.0,0.8145426511764526,black,50R,D,man,091,0.0,0.8276821970939636,20.0,50L,C,black,50L,C,50.0,"['../stimuli/version1_gray_lm/id091_50L_C.png', '../stimuli/version1_gray_lm/id033_50R_D.png']",00C,0.0,,,,,,,,,,,,,,,
38,633e4bd29cb434415f3c1ee7,3783,"['../stimuli/objectome/1512.jpeg', '../stimuli/objectome/1847.jpeg', '../stimuli/objectome/1510.jpeg']",,filler,100,348968,0.0-93.0,5980128635fbf100017d0861,633e47989d9c0ed6dfbfb57b,633e4a35f3d5004ca815a742,,5jexjydso237vdyzk0bg,"5/10/2022, 23:30:31",Chrome,task_exp2,chris,pilot_prolific_exp2,2.0,planes,_19_flyingBoat,True,2.0,arrowright,planes,1847.0,_19_flyingBoat,within,False,8.0,planes,"[1512, 1510]",_01_Airliner_2jetEngines,V3,,,,,,,,,,,,,,,,,,,,,,,,,,,,,,,,,,,,,,
39,633e4bd29cb434415f3c1ee8,3979,<p><img src='../stimuli/version1_gray_lm/id081_25L_C.png' ></img><img src='../stimuli/version1_gray_lm/id005_00C_D.png' ></img></p>,100.0,retrieval,145,425069,0.0-133.0,60563ce2975183fc53db9f8a,633e47989d9c0ed6dfbfb57b,633e4a231232c3e826d6d7ea,,ck3qyznsbs531jd13del,"10/5/2022, 9:30:27 PM",Chrome,task_exp2,chris,pilot_prolific_exp2,,,,True,2.0,,,,,,,3.0,,,,,"{'muct_id': '241', 'lighting': 't', 'race_guess': 'u', 'gender_guess': 'm', 'quality': '3', 'quality_eyes': '3', 'quality_mouth': '3', 'quality_ears': '3', 'quality_hair': '3', 'quality_neck': '3', 'facial_hair': '1.0', 'notes': 'mouth', 'race_common': 'black', 'gender_common': 'man'}","{'muct_id': '5', 'lighting': 'q', 'race_guess': 'b', 'gender_guess': 'w', 'quality': '3', 'quality_eyes': '3', 'quality_mouth': '3', 'quality_ears': '3', 'quality_hair': '3', 'quality_neck': '3', 'facial_hair': '0.0', 'notes': 'hat', 'race_common': 'black', 'gender_common': 'woman'}",man,081,0.0,0.8626909852027893,black,25L,C,woman,005,1.0,0.8830249309539795,6.0,00C,D,black,00C,D,50.0,"['../stimuli/version1_gray_lm/id081_25L_C.png', '../stimuli/version1_gray_lm/id005_00C_D.png']",00C,0.0,,,,,,,,,,,,,,,
40,633e4bd79cb434415f3c1ee9,3538,<p><img src='../stimuli/version1_gray_lm/id076_50R_D.png' ></img><img src='../stimuli/version1_gray_lm/id141_25R_C.png' ></img></p>,100.0,retrieval,147,429204,0.0-135.0,60563ce2975183fc53db9f8a,633e47989d9c0ed6dfbfb57b,633e4a231232c3e826d6d7ea,,ck3qyznsbs531jd13del,"10/5/2022, 9:30:31 PM",Chrome,task_exp2,chris,pilot_prolific_exp2,,,,True,2.0,,,,,,,4.0,,,,,"{'muct_id': '233', 'lighting': 'u', 'race_guess': 'w', 'gender_guess': 'w', 'quality': '3', 'quality_eyes': '3', 'quality_mouth': '3', 'quality_ears': '3', 'quality_hair': '3', 'quality_neck': '3', 'facial_hair': '0.0', 'notes': 'earrings', 'race_common': 'white', 'gender_common': 'woman'}","{'muct_id': '77', 'lighting': 's', 'race_guess': 'w', 'gender_guess': 'w', 'quality': '3', 'quality_eyes': '3', 'quality_mouth': '3', 'quality_ears': '3', 'quality_hair': '3', 'quality_neck': '3', 'facial_hair': '0.0', 'notes': None, 'race_common': 'white', 'gender_common': 'woman'}",woman,076,0.0,0.8258563876152039,white,50R,D,woman,141,1.0,0.7987668514251709,12.0,50R,C,white,25R,C,50.0,"['../stimuli/version1_gray_lm/id076_50R_D.png', '../stimuli/version1_gray_lm/id141_25R_C.png']",25L,-25.0,,,,,,,,,,,,,,,
41,633e4bdb9cb434415f3c1eea,3743,<p><img src='../stimuli/version1_gray_lm/id018_00C_U.png' ></img><img src='../stimuli/version1_gray_lm/id092_00C_D.png' ></img></p>,0.0,retrieval,149,434079,0.0-137.0,60563ce2975183fc53db9f8a,633e47989d9c0ed6dfbfb57b,633e4a231232c3e826d6d7ea,,ck3qyznsbs531jd13del,"10/5/2022, 9:30:36 PM",Chrome,task_exp2,chris,pilot_prolific_exp2,,,,True,1.0,,,,,,,5.0,,,,,"{'muct_id': '261', 'lighting': 'v', 'race_guess': 'w', 'gender_guess': 'm', 'quality': '2', 'quality_eyes': '2', 'quality_mouth': '3', 'quality_ears': '3', 'quality_hair': '3', 'quality_neck': '3', 'facial_hair': '0.0', 'notes': None, 'race_common': 'white', 'gender_common': 'man'}","{'muct_id': '21', 'lighting': 'q', 'race_guess': 'w', 'gender_guess': 'w', 'quality': '3', 'quality_eyes': '3', 'quality_mouth': '3', 'quality_ears': '3', 'quality_hair': '3', 'quality_neck': '3', 'facial_hair': '0.0', 'notes': None, 'race_common': 'white', 'gender_common': 'woman'}",man,092,1.0,0.8300182223320007,white,00C,D,woman,018,0.0,0.7882986664772034,35.0,00C,U,white,00C,U,50.0,"['../stimuli/version1_gray_lm/id018_00C_U.png', '../stimuli/version1_gray_lm/id092_00C_D.png']",00C,0.0,,,,,,,,,,,,,,,
42,633e4bdd9cb434415f3c1eeb,0,"['../stimuli/objectome/1503.jpeg', '../stimuli/objectome/2999.jpeg', '../stimuli/objectome/1481.jpeg']",,filler,102,359963,0.0-95.0,5980128635fbf100017d0861,633e47989d9c0ed6dfbfb57b,633e4a35f3d5004ca815a742,,5jexjydso237vdyzk0bg,"5/10/2022, 23:30:42",Chrome,task_exp2,chris,pilot_prolific_exp2,,planes,_01_Airliner_2jetEngines,False,2.0,,planes,2999.0,rdbarren,within,True,9.0,planes,"[1503, 1481]",_01_Airliner_2jetEngines,V3,,,,,,,,,,,,,,,,,,,,,,,,,,,,,,,,,,,,,,
43,633e4be19cb434415f3c1eec,5160,<p><img src='../stimuli/version1_gray_lm/id022_50L_U.png' ></img><img src='../stimuli/version1_gray_lm/id140_50R_C.png' ></img></p>,0.0,retrieval,151,439720,0.0-139.0,60563ce2975183fc53db9f8a,633e47989d9c0ed6dfbfb57b,633e4a231232c3e826d6d7ea,,ck3qyznsbs531jd13del,"10/5/2022, 9:30:41 PM",Chrome,task_exp2,chris,pilot_prolific_exp2,,,,False,2.0,,,,,,,6.0,,,,,"{'muct_id': '26', 'lighting': 'q', 'race_guess': 'b', 'gender_guess': 'w', 'quality': '3', 'quality_eyes': '3', 'quality_mouth': '3', 'quality_ears': '3', 'quality_hair': '3', 'quality_neck': '3', 'facial_hair': '0.0', 'notes': 'earrings', 'race_common': 'black', 'gender_common': 'woman'}","{'muct_id': '624', 'lighting': 'y', 'race_guess': 'b', 'gender_guess': 'w', 'quality': '3', 'quality_eyes': '3', 'quality_mouth': '3', 'quality_ears': '3', 'quality_hair': '3', 'quality_neck': '3', 'facial_hair': '0.0', 'notes': 'headband, earring', 'race_common': 'black', 'gender_common': 'woman'}",woman,022,0.0,0.759748637676239,black,50L,U,woman,140,1.0,0.8217131495475769,39.0,25R,C,black,50R,C,50.0,"['../stimuli/version1_gray_lm/id022_50L_U.png', '../stimuli/version1_gray_lm/id140_50R_C.png']",25R,25.0,,,,,,,,,,,,,,,
44,633e4be59cb434415f3c1eed,4095,"['../stimuli/objectome/3035.jpeg', '../stimuli/objectome/3010.jpeg', '../stimuli/objectome/1863.jpeg']",,filler,104,367584,0.0-97.0,5980128635fbf100017d0861,633e47989d9c0ed6dfbfb57b,633e4a35f3d5004ca815a742,,5jexjydso237vdyzk0bg,"5/10/2022, 23:30:49",Chrome,task_exp2,chris,pilot_prolific_exp2,3.0,planes,_19_flyingBoat,True,3.0,arrowdown,planes,1863.0,_19_flyingBoat,within,False,10.0,planes,"[3035, 3010]",sopwith,V3,,,,,,,,,,,,,,,,,,,,,,,,,,,,,,,,,,,,,,
45,633e4be69cb434415f3c1eee,3914,<p><img src='../stimuli/version1_gray_lm/id063_50R_C.png' ></img><img src='../stimuli/version1_gray_lm/id115_50R_U.png' ></img></p>,0.0,retrieval,153,444436,0.0-141.0,60563ce2975183fc53db9f8a,633e47989d9c0ed6dfbfb57b,633e4a231232c3e826d6d7ea,,ck3qyznsbs531jd13del,"10/5/2022, 9:30:46 PM",Chrome,task_exp2,chris,pilot_prolific_exp2,,,,True,1.0,,,,,,,7.0,,,,,"{'muct_id': '412', 'lighting': 'x', 'race_guess': 'w', 'gender_guess': 'm', 'quality': '3', 'quality_eyes': '3', 'quality_mouth': '3', 'quality_ears': '3', 'quality_hair': '3', 'quality_neck': '3', 'facial_hair': '0.0', 'notes': None, 'race_common': 'white', 'gender_common': 'man'}","{'muct_id': '203', 'lighting': 'u', 'race_guess': 'i', 'gender_guess': 'm', 'quality': '2', 'quality_eyes': '2', 'quality_mouth': '3', 'quality_ears': '3', 'quality_hair': '3', 'quality_neck': '3', 'facial_hair': '2.0', 'notes': 'mouth', 'race_common': 'white', 'gender_common': 'man'}",man,115,1.0,0.8490968346595764,white,50R,U,man,063,0.0,0.846563994884491,4.0,50R,C,white,50R,C,50.0,"['../stimuli/version1_gray_lm/id063_50R_C.png', '../stimuli/version1_gray_lm/id115_50R_U.png']",00C,0.0,,,,,,,,,,,,,,,
46,633e4be99cb434415f3c1eef,2392,"['../stimuli/objectome/1338.jpeg', '../stimuli/objectome/1418.jpeg', '../stimuli/objectome/1337.jpeg']",,filler,106,372176,0.0-99.0,5980128635fbf100017d0861,633e47989d9c0ed6dfbfb57b,633e4a35f3d5004ca815a742,,5jexjydso237vdyzk0bg,"5/10/2022, 23:30:54",Chrome,task_exp2,chris,pilot_prolific_exp2,2.0,chairs,_011,True,2.0,arrowright,chairs,1418.0,_011,within,False,11.0,chairs,"[1338, 1337]",_008,V3,,,,,,,,,,,,,,,,,,,,,,,,,,,,,,,,,,,,,,
47,633e4bec9cb434415f3c1ef0,5348,<p><img src='../stimuli/version1_gray_lm/id049_50L_C.png' ></img><img src='../stimuli/version1_gray_lm/id042_50L_C.png' ></img></p>,100.0,retrieval,155,450553,0.0-143.0,60563ce2975183fc53db9f8a,633e47989d9c0ed6dfbfb57b,633e4a231232c3e826d6d7ea,,ck3qyznsbs531jd13del,"10/5/2022, 9:30:52 PM",Chrome,task_exp2,chris,pilot_prolific_exp2,,,,True,2.0,,,,,,,8.0,,,,,"{'muct_id': '66', 'lighting': 'r', 'race_guess': 'w', 'gender_guess': 'm', 'quality': '3', 'quality_eyes': '3', 'quality_mouth': '3', 'quality_ears': '3', 'quality_hair': '3', 'quality_neck': '3', 'facial_hair': '0.0', 'notes': None, 'race_common': 'white', 'gender_common': 'man'}","{'muct_id': '57', 'lighting': 'r', 'race_guess': 'b', 'gender_guess': 'w', 'quality': '3', 'quality_eyes': '3', 'quality_mouth': '3', 'quality_ears': '3', 'quality_hair': '3', 'quality_neck': '3', 'facial_hair': '0.0', 'notes': 'earrings', 'race_common': 'white', 'gender_common': 'woman'}",man,049,0.0,0.8567651510238647,white,50L,C,woman,042,1.0,0.8604992628097534,15.0,50L,C,white,50L,C,50.0,"['../stimuli/version1_gray_lm/id049_50L_C.png', '../stimuli/version1_gray_lm/id042_50L_C.png']",00C,0.0,,,,,,,,,,,,,,,
48,633e4bed9cb434415f3c1ef1,2430,"['../stimuli/objectome/2159.jpeg', '../stimuli/objectome/988.jpeg', '../stimuli/objectome/995.jpeg']",,filler,108,375968,0.0-101.0,5980128635fbf100017d0861,633e47989d9c0ed6dfbfb57b,633e4a35f3d5004ca815a742,,5jexjydso237vdyzk0bg,"5/10/2022, 23:30:58",Chrome,task_exp2,chris,pilot_prolific_exp2,1.0,animals,blCow,True,1.0,arrowleft,animals,2159.0,blCow,within,False,12.0,animals,"[988, 995]",LIONESS,V3,,,,,,,,,,,,,,,,,,,,,,,,,,,,,,,,,,,,,,
49,633e4bf09cb434415f3c1ef2,3467,<p><img src='../stimuli/version1_gray_lm/id117_25R_D.png' ></img><img src='../stimuli/version1_gray_lm/id077_25R_D.png' ></img></p>,100.0,retrieval,157,454745,0.0-145.0,60563ce2975183fc53db9f8a,633e47989d9c0ed6dfbfb57b,633e4a231232c3e826d6d7ea,,ck3qyznsbs531jd13del,"10/5/2022, 9:30:56 PM",Chrome,task_exp2,chris,pilot_prolific_exp2,,,,True,2.0,,,,,,,9.0,,,,,"{'muct_id': '417', 'lighting': 'w', 'race_guess': 'b', 'gender_guess': 'm', 'quality': '3', 'quality_eyes': '3', 'quality_mouth': '3', 'quality_ears': '3', 'quality_hair': '3', 'quality_neck': '3', 'facial_hair': '1.0', 'notes': 'mouth', 'race_common': 'black', 'gender_common': 'man'}","{'muct_id': '235', 'lighting': 'u', 'race_guess': 'b', 'gender_guess': 'w', 'quality': '3', 'quality_eyes': '3', 'quality_mouth': '3', 'quality_ears': '3', 'quality_hair': '3', 'quality_neck': '3', 'facial_hair': '0.0', 'notes': 'earrings', 'race_common': 'black', 'gender_common': 'woman'}",man,117,0.0,0.8589047789573669,black,25R,D,woman,077,1.0,0.8321653008460999,34.0,25R,D,black,25R,D,50.0,"['../stimuli/version1_gray_lm/id117_25R_D.png', '../stimuli/version1_gray_lm/id077_25R_D.png']",00C,0.0,,,,,,,,,,,,,,,
50,633e4bf09cb434415f3c1ef3,2095,"['../stimuli/objectome/2152.jpeg', '../stimuli/objectome/2128.jpeg', '../stimuli/objectome/975.jpeg']",,filler,110,379257,0.0-103.0,5980128635fbf100017d0861,633e47989d9c0ed6dfbfb57b,633e4a35f3d5004ca815a742,,5jexjydso237vdyzk0bg,"5/10/2022, 23:31:01",Chrome,task_exp2,chris,pilot_prolific_exp2,3.0,animals,LIONESS,True,3.0,arrowdown,animals,975.0,LIONESS,within,False,13.0,animals,"[2152, 2128]",blCow,V3,,,,,,,,,,,,,,,,,,,,,,,,,,,,,,,,,,,,,,
51,633e4bf49cb434415f3c1ef4,2239,"['../stimuli/objectome/1230.jpeg', '../stimuli/objectome/962.jpeg', '../stimuli/objectome/1239.jpeg']",,filler,112,382888,0.0-105.0,5980128635fbf100017d0861,633e47989d9c0ed6dfbfb57b,633e4a35f3d5004ca815a742,,5jexjydso237vdyzk0bg,"5/10/2022, 23:31:05",Chrome,task_exp2,chris,pilot_prolific_exp2,2.0,animals,LIONESS,True,2.0,arrowright,animals,962.0,LIONESS,within,False,14.0,animals,"[1230, 1239]",TURTLE_L,V3,,,,,,,,,,,,,,,,,,,,,,,,,,,,,,,,,,,,,,
52,633e4bf49cb434415f3c1ef5,3759,<p><img src='../stimuli/version1_gray_lm/id061_50R_U.png' ></img><img src='../stimuli/version1_gray_lm/id146_50L_D.png' ></img></p>,100.0,retrieval,159,459067,0.0-147.0,60563ce2975183fc53db9f8a,633e47989d9c0ed6dfbfb57b,633e4a231232c3e826d6d7ea,,ck3qyznsbs531jd13del,"10/5/2022, 9:31:01 PM",Chrome,task_exp2,chris,pilot_prolific_exp2,,,,True,2.0,,,,,,,10.0,,,,,"{'muct_id': '89', 'lighting': 'r', 'race_guess': 'w', 'gender_guess': 'm', 'quality': '3', 'quality_eyes': '3', 'quality_mouth': '3', 'quality_ears': '3', 'quality_hair': '3', 'quality_neck': '3', 'facial_hair': '2.0', 'notes': None, 'race_common': 'white', 'gender_common': 'man'}","{'muct_id': '254', 'lighting': 'v', 'race_guess': 'w', 'gender_guess': 'm', 'quality': '2', 'quality_eyes': '2', 'quality_mouth': '3', 'quality_ears': '3', 'quality_hair': '2', 'quality_neck': '3', 'facial_hair': '0.0', 'notes': 'hair', 'race_common': 'white', 'gender_common': 'man'}",man,061,0.0,0.8483672738075256,white,50R,U,man,146,1.0,0.7793898582458496,18.0,25L,D,white,50L,D,50.0,"['../stimuli/version1_gray_lm/id061_50R_U.png', '../stimuli/version1_gray_lm/id146_50L_D.png']",25L,-25.0,,,,,,,,,,,,,,,
53,633e4bf89cb434415f3c1ef6,2374,"['../stimuli/objectome/950.jpeg', '../stimuli/objectome/960.jpeg', '../stimuli/objectome/974.jpeg']",,filler,114,386680,0.0-107.0,5980128635fbf100017d0861,633e47989d9c0ed6dfbfb57b,633e4a35f3d5004ca815a742,,5jexjydso237vdyzk0bg,"5/10/2022, 23:31:08",Chrome,task_exp2,chris,pilot_prolific_exp2,1.0,animals,GORILLA,True,1.0,arrowleft,animals,950.0,GORILLA,within,False,15.0,animals,"[960, 974]",LIONESS,V3,,,,,,,,,,,,,,,,,,,,,,,,,,,,,,,,,,,,,,
54,633e4bf89cb434415f3c1ef7,2890,<p><img src='../stimuli/version1_gray_lm/id028_25L_U.png' ></img><img src='../stimuli/version1_gray_lm/id004_50R_C.png' ></img></p>,100.0,retrieval,161,462465,0.0-149.0,60563ce2975183fc53db9f8a,633e47989d9c0ed6dfbfb57b,633e4a231232c3e826d6d7ea,,ck3qyznsbs531jd13del,"10/5/2022, 9:31:04 PM",Chrome,task_exp2,chris,pilot_prolific_exp2,,,,True,2.0,,,,,,,11.0,,,,,"{'muct_id': '38', 'lighting': 'q', 'race_guess': 'b', 'gender_guess': 'm', 'quality': '3', 'quality_eyes': '3', 'quality_mouth': '3', 'quality_ears': '3', 'quality_hair': '3', 'quality_neck': '3', 'facial_hair': '2.0', 'notes': None, 'race_common': 'black', 'gender_common': 'man'}","{'muct_id': '4', 'lighting': 'q', 'race_guess': 'b', 'gender_guess': 'm', 'quality': '3', 'quality_eyes': '3', 'quality_mouth': '3', 'quality_ears': '3', 'quality_hair': '3', 'quality_neck': '3', 'facial_hair': '2.0', 'notes': None, 'race_common': 'black', 'gender_common': 'man'}",man,028,0.0,0.8379344344139099,black,25L,U,man,004,1.0,0.8095406889915466,17.0,50R,C,black,50R,C,50.0,"['../stimuli/version1_gray_lm/id028_25L_U.png', '../stimuli/version1_gray_lm/id004_50R_C.png']",00C,0.0,,,,,,,,,,,,,,,
55,633e4bfd9cb434415f3c1ef8,2791,"['../stimuli/objectome/1254.jpeg', '../stimuli/objectome/1248.jpeg', '../stimuli/objectome/1582.jpeg']",,filler,116,391919,0.0-109.0,5980128635fbf100017d0861,633e47989d9c0ed6dfbfb57b,633e4a35f3d5004ca815a742,,5jexjydso237vdyzk0bg,"5/10/2022, 23:31:14",Chrome,task_exp2,chris,pilot_prolific_exp2,3.0,chairs,_033,True,3.0,arrowdown,chairs,1582.0,_033,within,False,16.0,chairs,"[1254, 1248]",_001,V3,,,,,,,,,,,,,,,,,,,,,,,,,,,,,,,,,,,,,,
56,633e4bfe9cb434415f3c1ef9,5529,<p><img src='../stimuli/version1_gray_lm/id151_50L_D.png' ></img><img src='../stimuli/version1_gray_lm/id155_00C_U.png' ></img></p>,74.0,retrieval,163,468637,0.0-151.0,60563ce2975183fc53db9f8a,633e47989d9c0ed6dfbfb57b,633e4a231232c3e826d6d7ea,,ck3qyznsbs531jd13del,"10/5/2022, 9:31:10 PM",Chrome,task_exp2,chris,pilot_prolific_exp2,,,,True,2.0,,,,,,,12.0,,,,,"{'muct_id': '444', 'lighting': 'w', 'race_guess': 'w', 'gender_guess': 'w', 'quality': '3', 'quality_eyes': '3', 'quality_mouth': '3', 'quality_ears': '3', 'quality_hair': '3', 'quality_neck': '3', 'facial_hair': '0.0', 'notes': None, 'race_common': 'white', 'gender_common': 'woman'}","{'muct_id': '615', 'lighting': 'z', 'race_guess': 'w', 'gender_guess': 'w', 'quality': '3', 'quality_eyes': '3', 'quality_mouth': '3', 'quality_ears': '3', 'quality_hair': '3', 'quality_neck': '3', 'facial_hair': '0.0', 'notes': 'earrings', 'race_common': 'white', 'gender_common': 'woman'}",woman,151,0.0,0.8187428116798401,white,50L,D,woman,155,1.0,0.8848520517349243,22.0,00C,U,white,00C,U,50.0,"['../stimuli/version1_gray_lm/id151_50L_D.png', '../stimuli/version1_gray_lm/id155_00C_U.png']",00C,0.0,,,,,,,,,,,,,,,
57,633e4c039cb434415f3c1efa,4327,"['../stimuli/objectome/1386.jpeg', '../stimuli/objectome/1392.jpeg', '../stimuli/objectome/1423.jpeg']",,filler,118,397584,0.0-111.0,5980128635fbf100017d0861,633e47989d9c0ed6dfbfb57b,633e4a35f3d5004ca815a742,,5jexjydso237vdyzk0bg,"5/10/2022, 23:31:19",Chrome,task_exp2,chris,pilot_prolific_exp2,3.0,chairs,_011,True,3.0,arrowdown,chairs,1423.0,_011,within,False,17.0,chairs,"[1386, 1392]",_010,V3,,,,,,,,,,,,,,,,,,,,,,,,,,,,,,,,,,,,,,
58,633e4c049cb434415f3c1efb,5325,<p><img src='../stimuli/version1_gray_lm/id119_25L_D.png' ></img><img src='../stimuli/version1_gray_lm/id144_50L_U.png' ></img></p>,100.0,retrieval,165,474707,0.0-153.0,60563ce2975183fc53db9f8a,633e47989d9c0ed6dfbfb57b,633e4a231232c3e826d6d7ea,,ck3qyznsbs531jd13del,"10/5/2022, 9:31:16 PM",Chrome,task_exp2,chris,pilot_prolific_exp2,,,,True,2.0,,,,,,,13.0,,,,,"{'muct_id': '420', 'lighting': 'w', 'race_guess': 'b', 'gender_guess': 'm', 'quality': '3', 'quality_eyes': '3', 'quality_mouth': '3', 'quality_ears': '3', 'quality_hair': '3', 'quality_neck': '3', 'facial_hair': '0.0', 'notes': None, 'race_common': 'black', 'gender_common': 'man'}","{'muct_id': '214', 'lighting': 'u', 'race_guess': 'b', 'gender_guess': 'w', 'quality': '2', 'quality_eyes': '2', 'quality_mouth': '3', 'quality_ears': '3', 'quality_hair': '3', 'quality_neck': '3', 'facial_hair': '0.0', 'notes': None, 'race_common': 'black', 'gender_common': 'woman'}",man,119,0.0,0.875046968460083,black,25L,D,woman,144,1.0,0.831580400466919,27.0,50L,U,black,50L,U,50.0,"['../stimuli/version1_gray_lm/id119_25L_D.png', '../stimuli/version1_gray_lm/id144_50L_U.png']",00C,0.0,,,,,,,,,,,,,,,
59,633e4c079cb434415f3c1efc,2615,"['../stimuli/objectome/207.jpeg', '../stimuli/objectome/183.jpeg', '../stimuli/objectome/181.jpeg']",,filler,120,402263,0.0-113.0,5980128635fbf100017d0861,633e47989d9c0ed6dfbfb57b,633e4a35f3d5004ca815a742,,5jexjydso237vdyzk0bg,"5/10/2022, 23:31:24",Chrome,task_exp2,chris,pilot_prolific_exp2,1.0,chairs,_014,True,1.0,arrowleft,chairs,207.0,_014,within,False,18.0,chairs,"[183, 181]",_010,V0,,,,,,,,,,,,,,,,,,,,,,,,,,,,,,,,,,,,,,
60,633e4c0b9cb434415f3c1efd,2599,"['../stimuli/objectome/1582.jpeg', '../stimuli/objectome/1254.jpeg', '../stimuli/objectome/1248.jpeg']",,filler,122,406079,0.0-115.0,5980128635fbf100017d0861,633e47989d9c0ed6dfbfb57b,633e4a35f3d5004ca815a742,,5jexjydso237vdyzk0bg,"5/10/2022, 23:31:28",Chrome,task_exp2,chris,pilot_prolific_exp2,1.0,chairs,_033,True,1.0,arrowleft,chairs,1582.0,_033,within,False,19.0,chairs,"[1254, 1248]",_001,V3,,,,,,,,,,,,,,,,,,,,,,,,,,,,,,,,,,,,,,
61,633e4c0c9cb434415f3c1efe,7560,<p><img src='../stimuli/version1_gray_lm/id116_25R_D.png' ></img><img src='../stimuli/version1_gray_lm/id089_50L_U.png' ></img></p>,100.0,retrieval,167,483140,0.0-155.0,60563ce2975183fc53db9f8a,633e47989d9c0ed6dfbfb57b,633e4a231232c3e826d6d7ea,,ck3qyznsbs531jd13del,"10/5/2022, 9:31:25 PM",Chrome,task_exp2,chris,pilot_prolific_exp2,,,,False,1.0,,,,,,,14.0,,,,,"{'muct_id': '255', 'lighting': 't', 'race_guess': 'w', 'gender_guess': 'm', 'quality': '3', 'quality_eyes': '3', 'quality_mouth': '3', 'quality_ears': '3', 'quality_hair': '3', 'quality_neck': '3', 'facial_hair': '2.0', 'notes': None, 'race_common': 'white', 'gender_common': 'man'}","{'muct_id': '414', 'lighting': 'w', 'race_guess': 'w', 'gender_guess': 'm', 'quality': '3', 'quality_eyes': '3', 'quality_mouth': '3', 'quality_ears': '3', 'quality_hair': '3', 'quality_neck': '3', 'facial_hair': '0.0', 'notes': None, 'race_common': 'white', 'gender_common': 'man'}",man,089,1.0,0.7799963355064392,white,50L,U,man,116,0.0,0.8068498373031616,36.0,50R,D,white,25R,D,50.0,"['../stimuli/version1_gray_lm/id116_25R_D.png', '../stimuli/version1_gray_lm/id089_50L_U.png']",25L,-25.0,,,,,,,,,,,,,,,
62,633e4c109cb434415f3c1eff,3117,<p><img src='../stimuli/version1_gray_lm/id084_00C_C.png' ></img><img src='../stimuli/version1_gray_lm/id003_00C_D.png' ></img></p>,100.0,retrieval,169,486817,0.0-157.0,60563ce2975183fc53db9f8a,633e47989d9c0ed6dfbfb57b,633e4a231232c3e826d6d7ea,,ck3qyznsbs531jd13del,"10/5/2022, 9:31:28 PM",Chrome,task_exp2,chris,pilot_prolific_exp2,,,,True,2.0,,,,,,,15.0,,,,,"{'muct_id': '248', 'lighting': 'u', 'race_guess': 'w', 'gender_guess': 'w', 'quality': '3', 'quality_eyes': '3', 'quality_mouth': '3', 'quality_ears': '3', 'quality_hair': '3', 'quality_neck': '3', 'facial_hair': '0.0', 'notes': None, 'race_common': 'white', 'gender_common': 'woman'}","{'muct_id': '3', 'lighting': 's', 'race_guess': 'i', 'gender_guess': 'w', 'quality': '2', 'quality_eyes': '3', 'quality_mouth': '3', 'quality_ears': '3', 'quality_hair': '2', 'quality_neck': '3', 'facial_hair': '0.0', 'notes': 'hair', 'race_common': 'white', 'gender_common': 'woman'}",woman,084,0.0,0.866418182849884,white,00C,C,woman,003,1.0,0.7775242328643799,9.0,25R,D,white,00C,D,50.0,"['../stimuli/version1_gray_lm/id084_00C_C.png', '../stimuli/version1_gray_lm/id003_00C_D.png']",25L,-25.0,,,,,,,,,,,,,,,
63,633e4c119cb434415f3c1f00,4967,"['../stimuli/objectome/77.jpeg', '../stimuli/objectome/404.jpeg', '../stimuli/objectome/406.jpeg']",,filler,124,412328,0.0-117.0,5980128635fbf100017d0861,633e47989d9c0ed6dfbfb57b,633e4a35f3d5004ca815a742,,5jexjydso237vdyzk0bg,"5/10/2022, 23:31:34",Chrome,task_exp2,chris,pilot_prolific_exp2,1.0,animals,GORILLA,True,1.0,arrowleft,animals,77.0,GORILLA,within,False,20.0,animals,"[404, 406]",breed_pug,V0,,,,,,,,,,,,,,,,,,,,,,,,,,,,,,,,,,,,,,
64,633e4c169cb434415f3c1f01,2871,"['../stimuli/objectome/2765.jpeg', '../stimuli/objectome/886.jpeg', '../stimuli/objectome/909.jpeg']",,filler,126,416639,0.0-119.0,5980128635fbf100017d0861,633e47989d9c0ed6dfbfb57b,633e4a35f3d5004ca815a742,,5jexjydso237vdyzk0bg,"5/10/2022, 23:31:38",Chrome,task_exp2,chris,pilot_prolific_exp2,1.0,animals,hedgehog,True,1.0,arrowleft,animals,2765.0,hedgehog,within,False,21.0,animals,"[886, 909]",ELEPHANT_M,V3,,,,,,,,,,,,,,,,,,,,,,,,,,,,,,,,,,,,,,
65,633e4c199cb434415f3c1f02,2063,"['../stimuli/objectome/1421.jpeg', '../stimuli/objectome/1374.jpeg', '../stimuli/objectome/1403.jpeg']",,filler,128,419615,0.0-121.0,5980128635fbf100017d0861,633e47989d9c0ed6dfbfb57b,633e4a35f3d5004ca815a742,,5jexjydso237vdyzk0bg,"5/10/2022, 23:31:41",Chrome,task_exp2,chris,pilot_prolific_exp2,2.0,chairs,_010,True,2.0,arrowright,chairs,1374.0,_010,within,False,22.0,chairs,"[1421, 1403]",_011,V3,,,,,,,,,,,,,,,,,,,,,,,,,,,,,,,,,,,,,,
66,633e4c199cb434415f3c1f03,7931,<p><img src='../stimuli/version1_gray_lm/id105_25L_U.png' ></img><img src='../stimuli/version1_gray_lm/id035_00C_D.png' ></img></p>,0.0,retrieval,171,495206,0.0-159.0,60563ce2975183fc53db9f8a,633e47989d9c0ed6dfbfb57b,633e4a231232c3e826d6d7ea,,ck3qyznsbs531jd13del,"10/5/2022, 9:31:37 PM",Chrome,task_exp2,chris,pilot_prolific_exp2,,,,False,2.0,,,,,,,16.0,,,,,"{'muct_id': '290', 'lighting': 't', 'race_guess': 'b', 'gender_guess': 'm', 'quality': '3', 'quality_eyes': '3', 'quality_mouth': '3', 'quality_ears': '3', 'quality_hair': '3', 'quality_neck': '3', 'facial_hair': '2.0', 'notes': None, 'race_common': 'black', 'gender_common': 'man'}","{'muct_id': '46', 'lighting': 'q', 'race_guess': 'b', 'gender_guess': 'w', 'quality': '3', 'quality_eyes': '3', 'quality_mouth': '3', 'quality_ears': '3', 'quality_hair': '3', 'quality_neck': '3', 'facial_hair': '0.0', 'notes': 'earrings', 'race_common': 'black', 'gender_common': 'woman'}",man,105,0.0,0.8225566744804382,black,25L,U,woman,035,1.0,0.8582037091255188,32.0,25R,D,black,00C,D,50.0,"['../stimuli/version1_gray_lm/id105_25L_U.png', '../stimuli/version1_gray_lm/id035_00C_D.png']",25L,-25.0,,,,,,,,,,,,,,,
67,633e4c219cb434415f3c1f04,6017,"<p style='font-size: 150%'><b>You have finished Part 2!</b></p><p>Nice job! On this section, you averaged <b>86% accuracy</b>.</p><p>You're on track to earn a good bonus. Keep up the good work!</p><p>Click 'Next' to continue to Part 3.</p>",0.0,bonus_update,130,427706,0.0-123.0,5980128635fbf100017d0861,633e47989d9c0ed6dfbfb57b,633e4a35f3d5004ca815a742,filler,5jexjydso237vdyzk0bg,"5/10/2022, 23:31:49",Chrome,task_exp2,chris,pilot_prolific_exp2,,,,,,,,,,,,,,,,,,,,,,,,,,,,,,,,,,,,,,,,,,,,,,,,,,,,,,
68,633e4c219cb434415f3c1f05,8259,<p><img src='../stimuli/version1_gray_lm/id060_50L_D.png' ></img><img src='../stimuli/version1_gray_lm/id021_25R_U.png' ></img></p>,97.0,retrieval,173,503994,0.0-161.0,60563ce2975183fc53db9f8a,633e47989d9c0ed6dfbfb57b,633e4a231232c3e826d6d7ea,,ck3qyznsbs531jd13del,"10/5/2022, 9:31:46 PM",Chrome,task_exp2,chris,pilot_prolific_exp2,,,,True,2.0,,,,,,,17.0,,,,,"{'muct_id': '88', 'lighting': 'q', 'race_guess': 'b', 'gender_guess': 'w', 'quality': '3', 'quality_eyes': '3', 'quality_mouth': '3', 'quality_ears': '3', 'quality_hair': '3', 'quality_neck': '3', 'facial_hair': '0.0', 'notes': 'earrings', 'race_common': 'black', 'gender_common': 'woman'}","{'muct_id': '25', 'lighting': 'r', 'race_guess': 'b', 'gender_guess': 'm', 'quality': '3', 'quality_eyes': '3', 'quality_mouth': '3', 'quality_ears': '3', 'quality_hair': '3', 'quality_neck': '3', 'facial_hair': '2.0', 'notes': None, 'race_common': 'black', 'gender_common': 'man'}",woman,060,0.0,0.7877137660980225,black,50L,D,man,021,1.0,0.8069405555725098,1.0,50R,U,black,25R,U,50.0,"['../stimuli/version1_gray_lm/id060_50L_D.png', '../stimuli/version1_gray_lm/id021_25R_U.png']",25L,-25.0,,,,,,,,,,,,,,,
69,633e4c299cb434415f3c1f06,7389,<p><img src='../stimuli/version1_gray_lm/id107_25L_D.png' ></img><img src='../stimuli/version1_gray_lm/id120_25L_U.png' ></img></p>,15.0,retrieval,175,512072,0.0-163.0,60563ce2975183fc53db9f8a,633e47989d9c0ed6dfbfb57b,633e4a231232c3e826d6d7ea,,ck3qyznsbs531jd13del,"10/5/2022, 9:31:54 PM",Chrome,task_exp2,chris,pilot_prolific_exp2,,,,True,1.0,,,,,,,18.0,,,,,"{'muct_id': '421', 'lighting': 'x', 'race_guess': 'b', 'gender_guess': 'w', 'quality': '3', 'quality_eyes': '3', 'quality_mouth': '3', 'quality_ears': '3', 'quality_hair': '3', 'quality_neck': '3', 'facial_hair': '0.0', 'notes': None, 'race_common': 'black', 'gender_common': 'woman'}","{'muct_id': '297', 'lighting': 't', 'race_guess': 'b', 'gender_guess': 'm', 'quality': '3', 'quality_eyes': '3', 'quality_mouth': '3', 'quality_ears': '3', 'quality_hair': '3', 'quality_neck': '3', 'facial_hair': '4.0', 'notes': 'beard', 'race_common': 'black', 'gender_common': 'man'}",woman,120,1.0,0.7253760695457458,black,25L,U,man,107,0.0,0.846289873123169,19.0,50L,D,black,25L,D,50.0,"['../stimuli/version1_gray_lm/id107_25L_D.png', '../stimuli/version1_gray_lm/id120_25L_U.png']",25R,25.0,,,,,,,,,,,,,,,
70,633e4c2e9cb434415f3c1f07,3682,<p><img src='../stimuli/version1_gray_lm/id052_50R_U.png' ></img><img src='../stimuli/version1_gray_lm/id143_50L_D.png' ></img></p>,100.0,retrieval,177,516396,0.0-165.0,60563ce2975183fc53db9f8a,633e47989d9c0ed6dfbfb57b,633e4a231232c3e826d6d7ea,,ck3qyznsbs531jd13del,"10/5/2022, 9:31:58 PM",Chrome,task_exp2,chris,pilot_prolific_exp2,,,,True,2.0,,,,,,,19.0,,,,,"{'muct_id': '75', 'lighting': 'q', 'race_guess': 'w', 'gender_guess': 'm', 'quality': '3', 'quality_eyes': '3', 'quality_mouth': '3', 'quality_ears': '3', 'quality_hair': '3', 'quality_neck': '3', 'facial_hair': '4.0', 'notes': 'beard', 'race_common': 'white', 'gender_common': 'man'}","{'muct_id': '90', 'lighting': 'q', 'race_guess': 'u', 'gender_guess': 'm', 'quality': '2', 'quality_eyes': '3', 'quality_mouth': '3', 'quality_ears': '2', 'quality_hair': '3', 'quality_neck': '3', 'facial_hair': '4.0', 'notes': 'beard', 'race_common': 'white', 'gender_common': 'man'}",man,052,0.0,0.8191283345222473,white,50R,U,man,143,1.0,0.7910582423210144,30.0,25L,D,white,50L,D,50.0,"['../stimuli/version1_gray_lm/id052_50R_U.png', '../stimuli/version1_gray_lm/id143_50L_D.png']",25L,-25.0,,,,,,,,,,,,,,,
71,633e4c349cb434415f3c1f08,5293,<p><img src='../stimuli/version1_gray_lm/id139_25R_C.png' ></img><img src='../stimuli/version1_gray_lm/id133_25R_C.png' ></img></p>,0.0,retrieval,179,522286,0.0-167.0,60563ce2975183fc53db9f8a,633e47989d9c0ed6dfbfb57b,633e4a231232c3e826d6d7ea,,ck3qyznsbs531jd13del,"10/5/2022, 9:32:04 PM",Chrome,task_exp2,chris,pilot_prolific_exp2,,,,True,1.0,,,,,,,20.0,,,,,"{'muct_id': '601', 'lighting': 'y', 'race_guess': 'b', 'gender_guess': 'w', 'quality': '3', 'quality_eyes': '3', 'quality_mouth': '3', 'quality_ears': '3', 'quality_hair': '3', 'quality_neck': '3', 'facial_hair': '0.0', 'notes': 'mouth', 'race_common': 'black', 'gender_common': 'woman'}","{'muct_id': '623', 'lighting': 'y', 'race_guess': 'b', 'gender_guess': 'm', 'quality': '3', 'quality_eyes': '3', 'quality_mouth': '3', 'quality_ears': '3', 'quality_hair': '3', 'quality_neck': '3', 'facial_hair': '1.0', 'notes': 'mouth', 'race_common': 'black', 'gender_common': 'man'}",woman,133,1.0,0.8340820074081421,black,25R,C,man,139,0.0,0.8236911296844482,31.0,25R,C,black,25R,C,50.0,"['../stimuli/version1_gray_lm/id139_25R_C.png', '../stimuli/version1_gray_lm/id133_25R_C.png']",00C,0.0,,,,,,,,,,,,,,,
72,633e4c3a9cb434415f3c1f09,6281,<p><img src='../stimuli/version1_gray_lm/id126_50R_D.png' ></img><img src='../stimuli/version1_gray_lm/id030_25L_D.png' ></img></p>,100.0,retrieval,181,529039,0.0-169.0,60563ce2975183fc53db9f8a,633e47989d9c0ed6dfbfb57b,633e4a231232c3e826d6d7ea,,ck3qyznsbs531jd13del,"10/5/2022, 9:32:11 PM",Chrome,task_exp2,chris,pilot_prolific_exp2,,,,True,2.0,,,,,,,21.0,,,,,"{'muct_id': '434', 'lighting': 'w', 'race_guess': 'b', 'gender_guess': 'w', 'quality': '3', 'quality_eyes': '3', 'quality_mouth': '3', 'quality_ears': '3', 'quality_hair': '3', 'quality_neck': '3', 'facial_hair': '0.0', 'notes': 'earrings', 'race_common': 'black', 'gender_common': 'woman'}","{'muct_id': '41', 'lighting': 'r', 'race_guess': 'b', 'gender_guess': 'm', 'quality': '3', 'quality_eyes': '3', 'quality_mouth': '3', 'quality_ears': '3', 'quality_hair': '3', 'quality_neck': '3', 'facial_hair': '0.0', 'notes': None, 'race_common': 'black', 'gender_common': 'man'}",woman,126,0.0,0.8201178908348083,black,50R,D,man,030,1.0,0.8237045407295227,0.0,00C,D,black,25L,D,50.0,"['../stimuli/version1_gray_lm/id126_50R_D.png', '../stimuli/version1_gray_lm/id030_25L_D.png']",25L,-25.0,,,,,,,,,,,,,,,
73,633e4c3f9cb434415f3c1f0a,4012,<p><img src='../stimuli/version1_gray_lm/id088_50L_U.png' ></img><img src='../stimuli/version1_gray_lm/id047_50R_C.png' ></img></p>,0.0,retrieval,183,533547,0.0-171.0,60563ce2975183fc53db9f8a,633e47989d9c0ed6dfbfb57b,633e4a231232c3e826d6d7ea,,ck3qyznsbs531jd13del,"10/5/2022, 9:32:15 PM",Chrome,task_exp2,chris,pilot_prolific_exp2,,,,True,1.0,,,,,,,22.0,,,,,"{'muct_id': '64', 'lighting': 'q', 'race_guess': 'w', 'gender_guess': 'm', 'quality': '3', 'quality_eyes': '3', 'quality_mouth': '3', 'quality_ears': '3', 'quality_hair': '3', 'quality_neck': '3', 'facial_hair': '0.0', 'notes': None, 'race_common': 'white', 'gender_common': 'man'}","{'muct_id': '252', 'lighting': 't', 'race_guess': 'w', 'gender_guess': 'w', 'quality': '3', 'quality_eyes': '3', 'quality_mouth': '3', 'quality_ears': '3', 'quality_hair': '3', 'quality_neck': '3', 'facial_hair': '0.0', 'notes': 'hair', 'race_common': 'white', 'gender_common': 'woman'}",man,047,1.0,0.8130168914794922,white,50R,C,woman,088,0.0,0.7057191133499146,38.0,25L,U,white,50L,U,50.0,"['../stimuli/version1_gray_lm/id088_50L_U.png', '../stimuli/version1_gray_lm/id047_50R_C.png']",25L,-25.0,,,,,,,,,,,,,,,
74,633e4c469cb434415f3c1f0b,6555,<p><img src='../stimuli/version1_gray_lm/id137_00C_C.png' ></img><img src='../stimuli/version1_gray_lm/id113_50L_U.png' ></img></p>,0.0,retrieval,185,540675,0.0-173.0,60563ce2975183fc53db9f8a,633e47989d9c0ed6dfbfb57b,633e4a231232c3e826d6d7ea,,ck3qyznsbs531jd13del,"10/5/2022, 9:32:22 PM",Chrome,task_exp2,chris,pilot_prolific_exp2,,,,True,1.0,,,,,,,23.0,,,,,"{'muct_id': '407', 'lighting': 'x', 'race_guess': 'u', 'gender_guess': 'm', 'quality': '3', 'quality_eyes': '3', 'quality_mouth': '3', 'quality_ears': '3', 'quality_hair': '3', 'quality_neck': '3', 'facial_hair': '3.0', 'notes': 'beard', 'race_common': 'black', 'gender_common': 'man'}","{'muct_id': '617', 'lighting': 'y', 'race_guess': 'b', 'gender_guess': 'w', 'quality': '3', 'quality_eyes': '3', 'quality_mouth': '3', 'quality_ears': '3', 'quality_hair': '3', 'quality_neck': '3', 'facial_hair': '0.0', 'notes': 'mouth', 'race_common': 'black', 'gender_common': 'man'}",man,113,1.0,0.811779797077179,black,50L,U,man,137,0.0,0.8485629558563232,8.0,25L,C,black,00C,C,50.0,"['../stimuli/version1_gray_lm/id137_00C_C.png', '../stimuli/version1_gray_lm/id113_50L_U.png']",25R,25.0,,,,,,,,,,,,,,,
75,633e4c4a9cb434415f3c1f0c,3010,<p><img src='../stimuli/version1_gray_lm/id072_50L_C.png' ></img><img src='../stimuli/version1_gray_lm/id027_50L_U.png' ></img></p>,0.0,retrieval,187,544169,0.0-175.0,60563ce2975183fc53db9f8a,633e47989d9c0ed6dfbfb57b,633e4a231232c3e826d6d7ea,,ck3qyznsbs531jd13del,"10/5/2022, 9:32:26 PM",Chrome,task_exp2,chris,pilot_prolific_exp2,,,,True,1.0,,,,,,,24.0,,,,,"{'muct_id': '37', 'lighting': 'q', 'race_guess': 'b', 'gender_guess': 'w', 'quality': '3', 'quality_eyes': '3', 'quality_mouth': '3', 'quality_ears': '3', 'quality_hair': '3', 'quality_neck': '3', 'facial_hair': '0.0', 'notes': 'earrings', 'race_common': 'black', 'gender_common': 'woman'}","{'muct_id': '224', 'lighting': 't', 'race_guess': 'u', 'gender_guess': 'm', 'quality': '3', 'quality_eyes': '3', 'quality_mouth': '3', 'quality_ears': '3', 'quality_hair': '3', 'quality_neck': '3', 'facial_hair': '0.0', 'notes': 'smile', 'race_common': 'black', 'gender_common': 'man'}",woman,027,1.0,0.8096588253974915,black,50L,U,man,072,0.0,0.823519766330719,37.0,50L,C,black,50L,C,50.0,"['../stimuli/version1_gray_lm/id072_50L_C.png', '../stimuli/version1_gray_lm/id027_50L_U.png']",00C,0.0,,,,,,,,,,,,,,,
76,633e4c4f9cb434415f3c1f0d,5275,<p><img src='../stimuli/version1_gray_lm/id036_50R_U.png' ></img><img src='../stimuli/version1_gray_lm/id001_25L_U.png' ></img></p>,70.0,retrieval,189,549725,0.0-177.0,60563ce2975183fc53db9f8a,633e47989d9c0ed6dfbfb57b,633e4a231232c3e826d6d7ea,,ck3qyznsbs531jd13del,"10/5/2022, 9:32:31 PM",Chrome,task_exp2,chris,pilot_prolific_exp2,,,,False,1.0,,,,,,,25.0,,,,,"{'muct_id': '1', 'lighting': 'q', 'race_guess': 'b', 'gender_guess': 'm', 'quality': '3', 'quality_eyes': '3', 'quality_mouth': '3', 'quality_ears': '3', 'quality_hair': '3', 'quality_neck': '3', 'facial_hair': '1.0', 'notes': None, 'race_common': 'black', 'gender_common': 'man'}","{'muct_id': '47', 'lighting': 'q', 'race_guess': 'b', 'gender_guess': 'u', 'quality': '3', 'quality_eyes': '3', 'quality_mouth': '3', 'quality_ears': '3', 'quality_hair': '3', 'quality_neck': '3', 'facial_hair': '0.0', 'notes': None, 'race_common': 'black', 'gender_common': 'man'}",man,001,1.0,0.7874979972839355,black,25L,U,man,036,0.0,0.8397776484489441,23.0,25R,U,black,50R,U,50.0,"['../stimuli/version1_gray_lm/id036_50R_U.png', '../stimuli/version1_gray_lm/id001_25L_U.png']",25R,25.0,,,,,,,,,,,,,,,
77,633e4c569cb434415f3c1f0e,5975,<p><img src='../stimuli/version1_gray_lm/id074_50R_D.png' ></img><img src='../stimuli/version1_gray_lm/id100_50R_D.png' ></img></p>,73.0,retrieval,191,556187,0.0-179.0,60563ce2975183fc53db9f8a,633e47989d9c0ed6dfbfb57b,633e4a231232c3e826d6d7ea,,ck3qyznsbs531jd13del,"10/5/2022, 9:32:38 PM",Chrome,task_exp2,chris,pilot_prolific_exp2,,,,True,2.0,,,,,,,26.0,,,,,"{'muct_id': '229', 'lighting': 't', 'race_guess': 'w', 'gender_guess': 'm', 'quality': '3', 'quality_eyes': '3', 'quality_mouth': '3', 'quality_ears': '3', 'quality_hair': '3', 'quality_neck': '3', 'facial_hair': '2.0', 'notes': 'mouth', 'race_common': 'white', 'gender_common': 'man'}","{'muct_id': '280', 'lighting': 'u', 'race_guess': 'w', 'gender_guess': 'm', 'quality': '3', 'quality_eyes': '3', 'quality_mouth': '3', 'quality_ears': '3', 'quality_hair': '3', 'quality_neck': '3', 'facial_hair': '0.0', 'notes': None, 'race_common': 'white', 'gender_common': 'man'}",man,074,0.0,0.8100727796554565,white,50R,D,man,100,1.0,0.8231818079948425,26.0,50R,D,white,50R,D,50.0,"['../stimuli/version1_gray_lm/id074_50R_D.png', '../stimuli/version1_gray_lm/id100_50R_D.png']",00C,0.0,,,,,,,,,,,,,,,
78,633e4c599cb434415f3c1f0f,5287,<p><img src='../stimuli/version1_gray_lm/id109_00C_C.png' ></img><img src='../stimuli/version1_gray_lm/id049_25R_C.png' ></img></p>,84.0,retrieval_practice,132,483679,0.0-125.0-0.0,5980128635fbf100017d0861,633e47989d9c0ed6dfbfb57b,633e4a35f3d5004ca815a742,,5jexjydso237vdyzk0bg,"5/10/2022, 23:32:45",Chrome,task_exp2,chris,pilot_prolific_exp2,,,,True,2.0,,,,,,,1.0,,,,,"{'muct_id': '401', 'lighting': 'w', 'race_guess': 'w', 'gender_guess': 'w', 'quality': '3', 'quality_eyes': '3', 'quality_mouth': '3', 'quality_ears': '3', 'quality_hair': '3', 'quality_neck': '3', 'facial_hair': '0.0', 'notes': 'mouth', 'race_common': 'white', 'gender_common': 'woman'}","{'muct_id': '66', 'lighting': 'r', 'race_guess': 'w', 'gender_guess': 'm', 'quality': '3', 'quality_eyes': '3', 'quality_mouth': '3', 'quality_ears': '3', 'quality_hair': '3', 'quality_neck': '3', 'facial_hair': '0.0', 'notes': None, 'race_common': 'white', 'gender_common': 'man'}",woman,109,0.0,0.8643267154693604,white,00C,C,man,049,1.0,0.8372405171394348,33.0,50R,C,white,25R,C,50.0,"['../stimuli/version1_gray_lm/id109_00C_C.png', '../stimuli/version1_gray_lm/id049_25R_C.png']",25L,-25.0,,,,,,,,,,,,,,,
79,633e4c5a9cb434415f3c1f10,3546,<p><img src='../stimuli/version1_gray_lm/id051_25R_C.png' ></img><img src='../stimuli/version1_gray_lm/id029_50L_U.png' ></img></p>,0.0,retrieval,193,560417,0.0-181.0,60563ce2975183fc53db9f8a,633e47989d9c0ed6dfbfb57b,633e4a231232c3e826d6d7ea,,ck3qyznsbs531jd13del,"10/5/2022, 9:32:42 PM",Chrome,task_exp2,chris,pilot_prolific_exp2,,,,True,1.0,,,,,,,27.0,,,,,"{'muct_id': '39', 'lighting': 'r', 'race_guess': 'w', 'gender_guess': 'w', 'quality': '3', 'quality_eyes': '3', 'quality_mouth': '3', 'quality_ears': '3', 'quality_hair': '3', 'quality_neck': '3', 'facial_hair': '0.0', 'notes': 'earrings hair', 'race_common': 'white', 'gender_common': 'woman'}","{'muct_id': '74', 'lighting': 'q', 'race_guess': 'w', 'gender_guess': 'w', 'quality': '3', 'quality_eyes': '3', 'quality_mouth': '3', 'quality_ears': '3', 'quality_hair': '3', 'quality_neck': '3', 'facial_hair': '0.0', 'notes': None, 'race_common': 'white', 'gender_common': 'woman'}",woman,029,1.0,0.7896707653999329,white,50L,U,woman,051,0.0,0.8559321761131287,5.0,25R,C,white,25R,C,50.0,"['../stimuli/version1_gray_lm/id051_25R_C.png', '../stimuli/version1_gray_lm/id029_50L_U.png']",00C,0.0,,,,,,,,,,,,,,,
80,633e4c5e9cb434415f3c1f11,3431,<p><img src='../stimuli/version1_gray_lm/id122_25L_U.png' ></img><img src='../stimuli/version1_gray_lm/id068_00C_D.png' ></img></p>,100.0,retrieval,195,564365,0.0-183.0,60563ce2975183fc53db9f8a,633e47989d9c0ed6dfbfb57b,633e4a231232c3e826d6d7ea,,ck3qyznsbs531jd13del,"10/5/2022, 9:32:46 PM",Chrome,task_exp2,chris,pilot_prolific_exp2,,,,True,2.0,,,,,,,28.0,,,,,"{'muct_id': '425', 'lighting': 'x', 'race_guess': 'b', 'gender_guess': 'm', 'quality': '3', 'quality_eyes': '3', 'quality_mouth': '3', 'quality_ears': '3', 'quality_hair': '3', 'quality_neck': '3', 'facial_hair': '2.0', 'notes': None, 'race_common': 'black', 'gender_common': 'man'}","{'muct_id': '213', 'lighting': 'u', 'race_guess': 'b', 'gender_guess': 'w', 'quality': '3', 'quality_eyes': '3', 'quality_mouth': '3', 'quality_ears': '3', 'quality_hair': '3', 'quality_neck': '3', 'facial_hair': '0.0', 'notes': None, 'race_common': 'black', 'gender_common': 'woman'}",man,122,0.0,0.8056508898735046,black,25L,U,woman,068,1.0,0.8593959212303162,14.0,00C,D,black,00C,D,50.0,"['../stimuli/version1_gray_lm/id122_25L_U.png', '../stimuli/version1_gray_lm/id068_00C_D.png']",00C,0.0,,,,,,,,,,,,,,,
81,633e4c629cb434415f3c1f12,4165,<p><img src='../stimuli/version1_gray_lm/id127_00C_U.png' ></img><img src='../stimuli/version1_gray_lm/id083_25R_D.png' ></img></p>,0.0,retrieval,197,569057,0.0-185.0,60563ce2975183fc53db9f8a,633e47989d9c0ed6dfbfb57b,633e4a231232c3e826d6d7ea,,ck3qyznsbs531jd13del,"10/5/2022, 9:32:51 PM",Chrome,task_exp2,chris,pilot_prolific_exp2,,,,True,1.0,,,,,,,29.0,,,,,"{'muct_id': '243', 'lighting': 'v', 'race_guess': 'b', 'gender_guess': 'm', 'quality': '3', 'quality_eyes': '3', 'quality_mouth': '3', 'quality_ears': '3', 'quality_hair': '3', 'quality_neck': '3', 'facial_hair': '0.0', 'notes': None, 'race_common': 'black', 'gender_common': 'man'}","{'muct_id': '435', 'lighting': 'x', 'race_guess': 'b', 'gender_guess': 'w', 'quality': '3', 'quality_eyes': '3', 'quality_mouth': '3', 'quality_ears': '3', 'quality_hair': '3', 'quality_neck': '3', 'facial_hair': '0.0', 'notes': 'bandana', 'race_common': 'black', 'gender_common': 'woman'}",man,083,1.0,0.8149755001068115,black,25R,D,woman,127,0.0,0.7882112264633179,29.0,00C,U,black,00C,U,50.0,"['../stimuli/version1_gray_lm/id127_00C_U.png', '../stimuli/version1_gray_lm/id083_25R_D.png']",00C,0.0,,,,,,,,,,,,,,,
82,633e4c649cb434415f3c1f13,6139,<p><img src='../stimuli/version1_gray_lm/id120_25R_U.png' ></img><img src='../stimuli/version1_gray_lm/id055_25L_U.png' ></img></p>,5.0,retrieval_practice,134,494900,0.0-126.0-0.0,5980128635fbf100017d0861,633e47989d9c0ed6dfbfb57b,633e4a35f3d5004ca815a742,,5jexjydso237vdyzk0bg,"5/10/2022, 23:32:57",Chrome,task_exp2,chris,pilot_prolific_exp2,,,,False,2.0,,,,,,,2.0,,,,,"{'muct_id': '421', 'lighting': 'x', 'race_guess': 'b', 'gender_guess': 'w', 'quality': '3', 'quality_eyes': '3', 'quality_mouth': '3', 'quality_ears': '3', 'quality_hair': '3', 'quality_neck': '3', 'facial_hair': '0.0', 'notes': None, 'race_common': 'black', 'gender_common': 'woman'}","{'muct_id': '81', 'lighting': 'q', 'race_guess': 'b', 'gender_guess': 'm', 'quality': '3', 'quality_eyes': '3', 'quality_mouth': '3', 'quality_ears': '3', 'quality_hair': '3', 'quality_neck': '3', 'facial_hair': '0.0', 'notes': None, 'race_common': 'black', 'gender_common': 'man'}",woman,120,0.0,0.7841565012931824,black,25R,U,man,055,1.0,0.7932624816894531,28.0,00C,U,black,25L,U,50.0,"['../stimuli/version1_gray_lm/id120_25R_U.png', '../stimuli/version1_gray_lm/id055_25L_U.png']",25L,-25.0,,,,,,,,,,,,,,,
83,633e4c669cb434415f3c1f14,2962,<p><img src='../stimuli/version1_gray_lm/id034_25L_C.png' ></img><img src='../stimuli/version1_gray_lm/id102_50L_U.png' ></img></p>,100.0,retrieval,199,572504,0.0-187.0,60563ce2975183fc53db9f8a,633e47989d9c0ed6dfbfb57b,633e4a231232c3e826d6d7ea,,ck3qyznsbs531jd13del,"10/5/2022, 9:32:54 PM",Chrome,task_exp2,chris,pilot_prolific_exp2,,,,True,2.0,,,,,,,30.0,,,,,"{'muct_id': '45', 'lighting': 'q', 'race_guess': 'w', 'gender_guess': 'm', 'quality': '3', 'quality_eyes': '3', 'quality_mouth': '3', 'quality_ears': '3', 'quality_hair': '3', 'quality_neck': '3', 'facial_hair': '0.0', 'notes': None, 'race_common': 'white', 'gender_common': 'man'}","{'muct_id': '283', 'lighting': 't', 'race_guess': 'i', 'gender_guess': 'w', 'quality': '3', 'quality_eyes': '3', 'quality_mouth': '3', 'quality_ears': '3', 'quality_hair': '3', 'quality_neck': '3', 'facial_hair': '0.0', 'notes': 'pottu', 'race_common': 'white', 'gender_common': 'woman'}",man,034,0.0,0.8475770950317383,white,25L,C,woman,102,1.0,0.7892012596130371,21.0,50L,U,white,50L,U,50.0,"['../stimuli/version1_gray_lm/id034_25L_C.png', '../stimuli/version1_gray_lm/id102_50L_U.png']",00C,0.0,,,,,,,,,,,,,,,
84,633e4c699cb434415f3c1f15,1414,<p style='font-size: 150%'><b>You have finished Part 1!</b></p><p>Click 'Next' to continue to Part 2.</p>,0.0,bonus_update,83,173427,0.0-83.0,61033627c32742424aeaaac1,633e47989d9c0ed6dfbfb57b,633e4bb7af6ebeb1bb4b8fdf,encoding,js12kftptn31drl3c6lb,"10/5/2022, 8:32:57 PM",Chrome,task_exp2,chris,pilot_prolific_exp2,,,,,,,,,,,,,,,,,,,,,,,,,,,,,,,,,,,,,,,,,,,,,,,,,,,,,,
85,633e4c6a9cb434415f3c1f16,4070,<p><img src='../stimuli/version1_gray_lm/id120_25R_U.png' ></img><img src='../stimuli/version1_gray_lm/id055_25L_U.png' ></img></p>,100.0,retrieval_practice,136,500744,0.0-126.1-0.1,5980128635fbf100017d0861,633e47989d9c0ed6dfbfb57b,633e4a35f3d5004ca815a742,,5jexjydso237vdyzk0bg,"5/10/2022, 23:33:02",Chrome,task_exp2,chris,pilot_prolific_exp2,,,,True,2.0,,,,,,,3.0,,,,,"{'muct_id': '421', 'lighting': 'x', 'race_guess': 'b', 'gender_guess': 'w', 'quality': '3', 'quality_eyes': '3', 'quality_mouth': '3', 'quality_ears': '3', 'quality_hair': '3', 'quality_neck': '3', 'facial_hair': '0.0', 'notes': None, 'race_common': 'black', 'gender_common': 'woman'}","{'muct_id': '81', 'lighting': 'q', 'race_guess': 'b', 'gender_guess': 'm', 'quality': '3', 'quality_eyes': '3', 'quality_mouth': '3', 'quality_ears': '3', 'quality_hair': '3', 'quality_neck': '3', 'facial_hair': '0.0', 'notes': None, 'race_common': 'black', 'gender_common': 'man'}",woman,120,0.0,0.7841565012931824,black,25R,U,man,055,1.0,0.7932624816894531,28.0,00C,U,black,25L,U,50.0,"['../stimuli/version1_gray_lm/id120_25R_U.png', '../stimuli/version1_gray_lm/id055_25L_U.png']",25L,-25.0,,,,,,,,,,,,,,,
86,633e4c6c9cb434415f3c1f17,5227,<p><img src='../stimuli/version1_gray_lm/id073_25L_U.png' ></img><img src='../stimuli/version1_gray_lm/id123_25L_D.png' ></img></p>,100.0,retrieval,201,578341,0.0-189.0,60563ce2975183fc53db9f8a,633e47989d9c0ed6dfbfb57b,633e4a231232c3e826d6d7ea,,ck3qyznsbs531jd13del,"10/5/2022, 9:33:00 PM",Chrome,task_exp2,chris,pilot_prolific_exp2,,,,True,2.0,,,,,,,31.0,,,,,"{'muct_id': '225', 'lighting': 'u', 'race_guess': 'w', 'gender_guess': 'm', 'quality': '3', 'quality_eyes': '3', 'quality_mouth': '3', 'quality_ears': '3', 'quality_hair': '3', 'quality_neck': '3', 'facial_hair': '2.0', 'notes': None, 'race_common': 'white', 'gender_common': 'man'}","{'muct_id': '76', 'lighting': 'q', 'race_guess': 'w', 'gender_guess': 'w', 'quality': '2', 'quality_eyes': '2', 'quality_mouth': '3', 'quality_ears': '2', 'quality_hair': '2', 'quality_neck': '3', 'facial_hair': '0.0', 'notes': 'hair', 'race_common': 'white', 'gender_common': 'woman'}",man,073,0.0,0.8597018718719482,white,25L,U,woman,123,1.0,0.852514386177063,10.0,25L,D,white,25L,D,50.0,"['../stimuli/version1_gray_lm/id073_25L_U.png', '../stimuli/version1_gray_lm/id123_25L_D.png']",00C,0.0,,,,,,,,,,,,,,,
87,633e4c729cb434415f3c1f18,6090,<p><img src='../stimuli/version1_gray_lm/id039_50L_U.png' ></img><img src='../stimuli/version1_gray_lm/id101_25R_C.png' ></img></p>,21.0,retrieval,203,584857,0.0-191.0,60563ce2975183fc53db9f8a,633e47989d9c0ed6dfbfb57b,633e4a231232c3e826d6d7ea,,ck3qyznsbs531jd13del,"10/5/2022, 9:33:06 PM",Chrome,task_exp2,chris,pilot_prolific_exp2,,,,False,2.0,,,,,,,32.0,,,,,"{'muct_id': '52', 'lighting': 'q', 'race_guess': 'w', 'gender_guess': 'm', 'quality': '3', 'quality_eyes': '3', 'quality_mouth': '3', 'quality_ears': '3', 'quality_hair': '3', 'quality_neck': '3', 'facial_hair': '0.0', 'notes': None, 'race_common': 'white', 'gender_common': 'man'}","{'muct_id': '281', 'lighting': 't', 'race_guess': 'w', 'gender_guess': 'w', 'quality': '3', 'quality_eyes': '3', 'quality_mouth': '3', 'quality_ears': '3', 'quality_hair': '3', 'quality_neck': '3', 'facial_hair': '0.0', 'notes': None, 'race_common': 'white', 'gender_common': 'woman'}",man,039,0.0,0.8140949606895447,white,50L,U,woman,101,1.0,0.8576162457466125,3.0,50R,C,white,25R,C,50.0,"['../stimuli/version1_gray_lm/id039_50L_U.png', '../stimuli/version1_gray_lm/id101_25R_C.png']",25L,-25.0,,,,,,,,,,,,,,,
88,633e4c739cb434415f3c1f19,4694,<p><img src='../stimuli/version1_gray_lm/id034_50L_D.png' ></img><img src='../stimuli/version1_gray_lm/id013_50R_D.png' ></img></p>,100.0,retrieval_practice,138,509983,0.0-127.0-0.0,5980128635fbf100017d0861,633e47989d9c0ed6dfbfb57b,633e4a35f3d5004ca815a742,,5jexjydso237vdyzk0bg,"5/10/2022, 23:33:12",Chrome,task_exp2,chris,pilot_prolific_exp2,,,,True,2.0,,,,,,,4.0,,,,,"{'muct_id': '45', 'lighting': 'q', 'race_guess': 'w', 'gender_guess': 'm', 'quality': '3', 'quality_eyes': '3', 'quality_mouth': '3', 'quality_ears': '3', 'quality_hair': '3', 'quality_neck': '3', 'facial_hair': '0.0', 'notes': None, 'race_common': 'white', 'gender_common': 'man'}","{'muct_id': '14', 'lighting': 'q', 'race_guess': 'w', 'gender_guess': 'w', 'quality': '3', 'quality_eyes': '3', 'quality_mouth': '3', 'quality_ears': '3', 'quality_hair': '3', 'quality_neck': '3', 'facial_hair': '0.0', 'notes': None, 'race_common': 'white', 'gender_common': 'woman'}",man,034,0.0,0.8013782501220703,white,50L,D,woman,013,1.0,0.819057047367096,24.0,50R,D,white,50R,D,50.0,"['../stimuli/version1_gray_lm/id034_50L_D.png', '../stimuli/version1_gray_lm/id013_50R_D.png']",00C,0.0,,,,,,,,,,,,,,,
89,633e4c779cb434415f3c1f1a,4589,<p><img src='../stimuli/version1_gray_lm/id055_25R_C.png' ></img><img src='../stimuli/version1_gray_lm/id046_25L_C.png' ></img></p>,0.0,retrieval,205,589903,0.0-193.0,60563ce2975183fc53db9f8a,633e47989d9c0ed6dfbfb57b,633e4a231232c3e826d6d7ea,,ck3qyznsbs531jd13del,"10/5/2022, 9:33:11 PM",Chrome,task_exp2,chris,pilot_prolific_exp2,,,,True,1.0,,,,,,,33.0,,,,,"{'muct_id': '63', 'lighting': 'q', 'race_guess': 'i', 'gender_guess': 'w', 'quality': '3', 'quality_eyes': '3', 'quality_mouth': '3', 'quality_ears': '3', 'quality_hair': '3', 'quality_neck': '3', 'facial_hair': '0.0', 'notes': None, 'race_common': 'black', 'gender_common': 'woman'}","{'muct_id': '81', 'lighting': 'q', 'race_guess': 'b', 'gender_guess': 'm', 'quality': '3', 'quality_eyes': '3', 'quality_mouth': '3', 'quality_ears': '3', 'quality_hair': '3', 'quality_neck': '3', 'facial_hair': '0.0', 'notes': None, 'race_common': 'black', 'gender_common': 'man'}",woman,046,1.0,0.8748880624771118,black,25L,C,man,055,0.0,0.8429303765296936,13.0,50R,C,black,25R,C,50.0,"['../stimuli/version1_gray_lm/id055_25R_C.png', '../stimuli/version1_gray_lm/id046_25L_C.png']",25L,-25.0,,,,,,,,,,,,,,,
90,633e4c7b9cb434415f3c1f1b,3653,<p><img src='../stimuli/version1_gray_lm/id002_25L_D.png' ></img><img src='../stimuli/version1_gray_lm/id149_00C_U.png' ></img></p>,0.0,retrieval,207,594010,0.0-195.0,60563ce2975183fc53db9f8a,633e47989d9c0ed6dfbfb57b,633e4a231232c3e826d6d7ea,,ck3qyznsbs531jd13del,"10/5/2022, 9:33:16 PM",Chrome,task_exp2,chris,pilot_prolific_exp2,,,,True,1.0,,,,,,,34.0,,,,,"{'muct_id': '416', 'lighting': 'w', 'race_guess': 'w', 'gender_guess': 'm', 'quality': '3', 'quality_eyes': '3', 'quality_mouth': '3', 'quality_ears': '3', 'quality_hair': '3', 'quality_neck': '3', 'facial_hair': '2.0', 'notes': None, 'race_common': 'white', 'gender_common': 'man'}","{'muct_id': '2', 'lighting': 'r', 'race_guess': 'w', 'gender_guess': 'm', 'quality': '3', 'quality_eyes': '3', 'quality_mouth': '3', 'quality_ears': '3', 'quality_hair': '3', 'quality_neck': '3', 'facial_hair': '2.0', 'notes': 'eyes', 'race_common': 'white', 'gender_common': 'man'}",man,149,1.0,0.8242371678352356,white,00C,U,man,002,0.0,0.8685739040374756,2.0,50L,D,white,25L,D,50.0,"['../stimuli/version1_gray_lm/id002_25L_D.png', '../stimuli/version1_gray_lm/id149_00C_U.png']",25R,25.0,,,,,,,,,,,,,,,
91,633e4c7b9cb434415f3c1f1c,4013,<p><img src='../stimuli/version1_gray_lm/id041_25R_U.png' ></img><img src='../stimuli/version1_gray_lm/id089_00C_D.png' ></img></p>,0.0,retrieval,141,518536,0.0-129.0,5980128635fbf100017d0861,633e47989d9c0ed6dfbfb57b,633e4a35f3d5004ca815a742,,5jexjydso237vdyzk0bg,"5/10/2022, 23:33:20",Chrome,task_exp2,chris,pilot_prolific_exp2,,,,True,1.0,,,,,,,1.0,,,,,"{'muct_id': '255', 'lighting': 't', 'race_guess': 'w', 'gender_guess': 'm', 'quality': '3', 'quality_eyes': '3', 'quality_mouth': '3', 'quality_ears': '3', 'quality_hair': '3', 'quality_neck': '3', 'facial_hair': '2.0', 'notes': None, 'race_common': 'white', 'gender_common': 'man'}","{'muct_id': '56', 'lighting': 'q', 'race_guess': 'w', 'gender_guess': 'm', 'quality': '3', 'quality_eyes': '3', 'quality_mouth': '3', 'quality_ears': '3', 'quality_hair': '3', 'quality_neck': '3', 'facial_hair': '0.0', 'notes': None, 'race_common': 'white', 'gender_common': 'man'}",man,089,1.0,0.8744609951972961,white,00C,D,man,041,0.0,0.8482251167297363,6.0,00C,U,white,25R,U,50.0,"['../stimuli/version1_gray_lm/id041_25R_U.png', '../stimuli/version1_gray_lm/id089_00C_D.png']",25R,25.0,,,,,,,,,,,,,,,
92,633e4c809cb434415f3c1f1d,4532,<p><img src='../stimuli/version1_gray_lm/id094_25L_C.png' ></img><img src='../stimuli/version1_gray_lm/id013_25R_D.png' ></img></p>,0.0,retrieval,209,599016,0.0-197.0,60563ce2975183fc53db9f8a,633e47989d9c0ed6dfbfb57b,633e4a231232c3e826d6d7ea,,ck3qyznsbs531jd13del,"10/5/2022, 9:33:21 PM",Chrome,task_exp2,chris,pilot_prolific_exp2,,,,True,1.0,,,,,,,35.0,,,,,"{'muct_id': '14', 'lighting': 'q', 'race_guess': 'w', 'gender_guess': 'w', 'quality': '3', 'quality_eyes': '3', 'quality_mouth': '3', 'quality_ears': '3', 'quality_hair': '3', 'quality_neck': '3', 'facial_hair': '0.0', 'notes': None, 'race_common': 'white', 'gender_common': 'woman'}","{'muct_id': '264', 'lighting': 't', 'race_guess': 'w', 'gender_guess': 'm', 'quality': '3', 'quality_eyes': '3', 'quality_mouth': '3', 'quality_ears': '3', 'quality_hair': '3', 'quality_neck': '3', 'facial_hair': '0.0', 'notes': None, 'race_common': 'white', 'gender_common': 'man'}",woman,013,1.0,0.807195782661438,white,25R,D,man,094,0.0,0.8512202501296997,16.0,25L,C,white,25L,C,50.0,"['../stimuli/version1_gray_lm/id094_25L_C.png', '../stimuli/version1_gray_lm/id013_25R_D.png']",00C,0.0,,,,,,,,,,,,,,,
93,633e4c829cb434415f3c1f1e,5287,<p><img src='../stimuli/version1_gray_lm/id123_00C_D.png' ></img><img src='../stimuli/version1_gray_lm/id050_00C_U.png' ></img></p>,2.0,retrieval,143,525096,0.0-131.0,5980128635fbf100017d0861,633e47989d9c0ed6dfbfb57b,633e4a35f3d5004ca815a742,,5jexjydso237vdyzk0bg,"5/10/2022, 23:33:27",Chrome,task_exp2,chris,pilot_prolific_exp2,,,,True,1.0,,,,,,,2.0,,,,,"{'muct_id': '70', 'lighting': 'r', 'race_guess': 'w', 'gender_guess': 'm', 'quality': '3', 'quality_eyes': '3', 'quality_mouth': '3', 'quality_ears': '3', 'quality_hair': '3', 'quality_neck': '3', 'facial_hair': '4.0', 'notes': 'beard', 'race_common': 'white', 'gender_common': 'man'}","{'muct_id': '76', 'lighting': 'q', 'race_guess': 'w', 'gender_guess': 'w', 'quality': '2', 'quality_eyes': '2', 'quality_mouth': '3', 'quality_ears': '2', 'quality_hair': '2', 'quality_neck': '3', 'facial_hair': '0.0', 'notes': 'hair', 'race_common': 'white', 'gender_common': 'woman'}",man,050,1.0,0.7800014019012451,white,00C,U,woman,123,0.0,0.8291328549385071,9.0,25R,D,white,00C,D,50.0,"['../stimuli/version1_gray_lm/id123_00C_D.png', '../stimuli/version1_gray_lm/id050_00C_U.png']",25L,-25.0,,,,,,,,,,,,,,,
94,633e4c859cb434415f3c1f1f,4606,<p><img src='../stimuli/version1_gray_lm/id131_25L_C.png' ></img><img src='../stimuli/version1_gray_lm/id012_25R_C.png' ></img></p>,16.0,retrieval,211,604105,0.0-199.0,60563ce2975183fc53db9f8a,633e47989d9c0ed6dfbfb57b,633e4a231232c3e826d6d7ea,,ck3qyznsbs531jd13del,"10/5/2022, 9:33:26 PM",Chrome,task_exp2,chris,pilot_prolific_exp2,,,,True,1.0,,,,,,,36.0,,,,,"{'muct_id': '12', 'lighting': 'q', 'race_guess': 'i', 'gender_guess': 'm', 'quality': '3', 'quality_eyes': '3', 'quality_mouth': '3', 'quality_ears': '3', 'quality_hair': '3', 'quality_neck': '3', 'facial_hair': '2.0', 'notes': None, 'race_common': 'white', 'gender_common': 'man'}","{'muct_id': '442', 'lighting': 'x', 'race_guess': 'w', 'gender_guess': 'm', 'quality': '3', 'quality_eyes': '3', 'quality_mouth': '3', 'quality_ears': '3', 'quality_hair': '3', 'quality_neck': '3', 'facial_hair': '2.0', 'notes': None, 'race_common': 'white', 'gender_common': 'man'}",man,012,1.0,0.8242233395576477,white,25R,C,man,131,0.0,0.8316954970359802,28.0,50L,C,white,25L,C,50.0,"['../stimuli/version1_gray_lm/id131_25L_C.png', '../stimuli/version1_gray_lm/id012_25R_C.png']",25R,25.0,,,,,,,,,,,,,,,
95,633e4c889cb434415f3c1f20,4725,<p><img src='../stimuli/version1_gray_lm/id117_25R_C.png' ></img><img src='../stimuli/version1_gray_lm/id064_25R_D.png' ></img></p>,11.0,retrieval,145,530949,0.0-133.0,5980128635fbf100017d0861,633e47989d9c0ed6dfbfb57b,633e4a35f3d5004ca815a742,,5jexjydso237vdyzk0bg,"5/10/2022, 23:33:33",Chrome,task_exp2,chris,pilot_prolific_exp2,,,,True,1.0,,,,,,,3.0,,,,,"{'muct_id': '204', 'lighting': 't', 'race_guess': 'b', 'gender_guess': 'm', 'quality': '3', 'quality_eyes': '3', 'quality_mouth': '3', 'quality_ears': '3', 'quality_hair': '3', 'quality_neck': '3', 'facial_hair': '1.0', 'notes': None, 'race_common': 'black', 'gender_common': 'man'}","{'muct_id': '417', 'lighting': 'w', 'race_guess': 'b', 'gender_guess': 'm', 'quality': '3', 'quality_eyes': '3', 'quality_mouth': '3', 'quality_ears': '3', 'quality_hair': '3', 'quality_neck': '3', 'facial_hair': '1.0', 'notes': 'mouth', 'race_common': 'black', 'gender_common': 'man'}",man,064,1.0,0.8336070775985718,black,25R,D,man,117,0.0,0.8040590882301331,23.0,25R,C,black,25R,C,50.0,"['../stimuli/version1_gray_lm/id117_25R_C.png', '../stimuli/version1_gray_lm/id064_25R_D.png']",00C,0.0,,,,,,,,,,,,,,,
96,633e4c899cb434415f3c1f21,2938,"['../stimuli/objectome/1847.jpeg', '../stimuli/objectome/1512.jpeg', '../stimuli/objectome/1510.jpeg']",,filler,85,205644,0.0-85.0-0.0,61033627c32742424aeaaac1,633e47989d9c0ed6dfbfb57b,633e4bb7af6ebeb1bb4b8fdf,,js12kftptn31drl3c6lb,"10/5/2022, 8:33:29 PM",Chrome,task_exp2,chris,pilot_prolific_exp2,1.0,planes,_19_flyingBoat,True,1.0,arrowleft,planes,1847.0,_19_flyingBoat,within,False,1.0,planes,"[1512, 1510]",_01_Airliner_2jetEngines,V3,,,,,,,,,,,,,,,,,,,,,,,,,,,,,,,,,,,,,,
97,633e4c8c9cb434415f3c1f22,6057,<p><img src='../stimuli/version1_gray_lm/id057_25R_D.png' ></img><img src='../stimuli/version1_gray_lm/id121_25L_U.png' ></img></p>,19.0,retrieval,213,610679,0.0-201.0,60563ce2975183fc53db9f8a,633e47989d9c0ed6dfbfb57b,633e4a231232c3e826d6d7ea,,ck3qyznsbs531jd13del,"10/5/2022, 9:33:32 PM",Chrome,task_exp2,chris,pilot_prolific_exp2,,,,True,1.0,,,,,,,37.0,,,,,"{'muct_id': '423', 'lighting': 'w', 'race_guess': 'b', 'gender_guess': 'm', 'quality': '3', 'quality_eyes': '3', 'quality_mouth': '3', 'quality_ears': '3', 'quality_hair': '3', 'quality_neck': '3', 'facial_hair': '1.0', 'notes': None, 'race_common': 'black', 'gender_common': 'man'}","{'muct_id': '83', 'lighting': 'r', 'race_guess': 'b', 'gender_guess': 'm', 'quality': '3', 'quality_eyes': '3', 'quality_mouth': '3', 'quality_ears': '3', 'quality_hair': '3', 'quality_neck': '3', 'facial_hair': '3.0', 'notes': None, 'race_common': 'black', 'gender_common': 'man'}",man,121,1.0,0.7749325633049011,black,25L,U,man,057,0.0,0.8223825693130493,11.0,50R,D,black,25R,D,50.0,"['../stimuli/version1_gray_lm/id057_25R_D.png', '../stimuli/version1_gray_lm/id121_25L_U.png']",25L,-25.0,,,,,,,,,,,,,,,
98,633e4c8e9cb434415f3c1f23,1887,"['../stimuli/objectome/1594.jpeg', '../stimuli/objectome/1447.jpeg', '../stimuli/objectome/1577.jpeg']",,filler,87,209666,0.0-86.0-0.0,61033627c32742424aeaaac1,633e47989d9c0ed6dfbfb57b,633e4bb7af6ebeb1bb4b8fdf,,js12kftptn31drl3c6lb,"10/5/2022, 8:33:33 PM",Chrome,task_exp2,chris,pilot_prolific_exp2,2.0,chairs,_014,True,2.0,arrowright,chairs,1447.0,_014,within,False,2.0,chairs,"[1594, 1577]",_033,V3,,,,,,,,,,,,,,,,,,,,,,,,,,,,,,,,,,,,,,
99,633e4c8f9cb434415f3c1f24,5879,<p><img src='../stimuli/version1_gray_lm/id080_50L_U.png' ></img><img src='../stimuli/version1_gray_lm/id148_00C_C.png' ></img></p>,100.0,retrieval,147,537880,0.0-135.0,5980128635fbf100017d0861,633e47989d9c0ed6dfbfb57b,633e4a35f3d5004ca815a742,,5jexjydso237vdyzk0bg,"5/10/2022, 23:33:40",Chrome,task_exp2,chris,pilot_prolific_exp2,,,,False,1.0,,,,,,,4.0,,,,,"{'muct_id': '415', 'lighting': 'w', 'race_guess': 'w', 'gender_guess': 'w', 'quality': '3', 'quality_eyes': '3', 'quality_mouth': '3', 'quality_ears': '3', 'quality_hair': '3', 'quality_neck': '3', 'facial_hair': '0.0', 'notes': None, 'race_common': 'white', 'gender_common': 'woman'}","{'muct_id': '240', 'lighting': 'u', 'race_guess': 'w', 'gender_guess': 'm', 'quality': '3', 'quality_eyes': '3', 'quality_mouth': '3', 'quality_ears': '3', 'quality_hair': '3', 'quality_neck': '3', 'facial_hair': '0.0', 'notes': 'mouth', 'race_common': 'white', 'gender_common': 'man'}",woman,148,1.0,0.9111868143081665,white,00C,C,man,080,0.0,0.7474948763847351,19.0,50L,U,white,50L,U,50.0,"['../stimuli/version1_gray_lm/id080_50L_U.png', '../stimuli/version1_gray_lm/id148_00C_C.png']",00C,0.0,,,,,,,,,,,,,,,
100,633e4c919cb434415f3c1f25,2946,"['../stimuli/objectome/2831.jpeg', '../stimuli/objectome/2839.jpeg', '../stimuli/objectome/1490.jpeg']",,filler,89,213559,0.0-87.0-0.0,61033627c32742424aeaaac1,633e47989d9c0ed6dfbfb57b,633e4bb7af6ebeb1bb4b8fdf,,js12kftptn31drl3c6lb,"10/5/2022, 8:33:37 PM",Chrome,task_exp2,chris,pilot_prolific_exp2,3.0,planes,_01_Airliner_2jetEngines,True,3.0,arrowdown,planes,1490.0,_01_Airliner_2jetEngines,within,False,3.0,planes,"[2831, 2839]",junkers88,V3,,,,,,,,,,,,,,,,,,,,,,,,,,,,,,,,,,,,,,
101,633e4c949cb434415f3c1f26,4159,<p><img src='../stimuli/version1_gray_lm/id140_00C_D.png' ></img><img src='../stimuli/version1_gray_lm/id016_25L_U.png' ></img></p>,99.0,retrieval,149,543136,0.0-137.0,5980128635fbf100017d0861,633e47989d9c0ed6dfbfb57b,633e4a35f3d5004ca815a742,,5jexjydso237vdyzk0bg,"5/10/2022, 23:33:45",Chrome,task_exp2,chris,pilot_prolific_exp2,,,,True,2.0,,,,,,,5.0,,,,,"{'muct_id': '624', 'lighting': 'y', 'race_guess': 'b', 'gender_guess': 'w', 'quality': '3', 'quality_eyes': '3', 'quality_mouth': '3', 'quality_ears': '3', 'quality_hair': '3', 'quality_neck': '3', 'facial_hair': '0.0', 'notes': 'headband, earring', 'race_common': 'black', 'gender_common': 'woman'}","{'muct_id': '18', 'lighting': 'q', 'race_guess': 'b', 'gender_guess': 'w', 'quality': '3', 'quality_eyes': '3', 'quality_mouth': '3', 'quality_ears': '3', 'quality_hair': '3', 'quality_neck': '3', 'facial_hair': '0.0', 'notes': 'earrings', 'race_common': 'black', 'gender_common': 'woman'}",woman,140,0.0,0.8531489968299866,black,00C,D,woman,016,1.0,0.7409974336624146,21.0,50L,U,black,25L,U,50.0,"['../stimuli/version1_gray_lm/id140_00C_D.png', '../stimuli/version1_gray_lm/id016_25L_U.png']",25R,25.0,,,,,,,,,,,,,,,
102,633e4c989cb434415f3c1f27,11532,"<p style='font-size: 150%'><b>Nice Work!</b></p><p>In part 2, you responded correctly on 91% of the trials with an average response time of 1.79 seconds.</p><p>In part 3, you responded correctly on 86% of the trials with an average response time of 4.76 seconds.</p><p><b>You earned a bonus of <b>$1.63</b> for a total of <b>$3.63</b> in 10.19 minutes!</b></p><p>Before you finish, please press 'Continue' to answer a couple questions so you receive credit for your participation.",0.0,summary,215,622697,0.0-203.0,60563ce2975183fc53db9f8a,633e47989d9c0ed6dfbfb57b,633e4a231232c3e826d6d7ea,,ck3qyznsbs531jd13del,"10/5/2022, 9:33:44 PM",Chrome,task_exp2,chris,pilot_prolific_exp2,,,,,,,,,,,,,,,,,,,,,,,,,,,,,,,,,,,,,,,,10.19,91.0,1.79,22.0,"{'local': False, 'prolific_redirect_link': 'https://app.prolific.co/submissions/complete?cc=7FEF15D8', 'stimulus_version': 'version1_gray_lm', 'stimulus_path': '../stimuli/version1_gray_lm/', 'filler_path': '../stimuli/objectome/', 'database': 'chris', 'collection': 'task_exp2', 'iteration': 'pilot_prolific_exp2', 'base_pay_per_hour': 12, 'show_pay': True, 'background': 'lightgray', 'stim_background': 'lightgray', 'filler_background': '#808080', 'text_color': 'black', 'possible_tilts_LR': ['00C', '25L', '25R', '50L', '50R'], 'possible_tilts_UD': ['C', 'U', 'D'], 'categories': ['white', 'black'], 'encoding_n_trials_unique': 40, 'encoding_repeats': 1, 'encoding_max_trial_time': 3000, 'encoding_seconds_per_trial': 3, 'miniblock_size': 4, 'include_filler': True, 'filler_time': 1, 'filler_max_trial_time': 10000, 'filler_practice_criterion': 3, 'reference_categories': ['animals', 'chairs', 'planes'], 'control_frequency': 10, 'experimental_variation_level': 'V3', 'control_variation_level': 'V0', 'n_objects_per_trial': 3, 'filler_bonus': 0.02, 'filler_penalty': 0.06, 'filler_feedback': False, 'filler_seconds_per_trial': 3, 'filler_good_performance': 0.9, 'retrieval_probe_type': 'afc', 'afc_pair': 'same', 'retrieval_practice_n_trials': 3, 'retrieval_max_trial_time': 10000, 'retrieval_bonus': 0.05, 'retrieval_penalty': 0.05, 'portion_new': 0.445, 'tilt_strategy': 'uniform_symmetric', 'possible_tilt_changes': [0, 25], 'retrieval_seconds_per_trial': 3, 'retrieval_good_performance': 0.6, 'key_': {'arrowleft': 1, 'arrowright': 2, 'arrowdown': 3}, 'encoding_n_trials': 40, 'filler_n_trials': 20, 'retrieval_n_trials': 40, 'encoding_completion_time': 2, 'retrieval_completion_time': 2, 'total_other_time': 5, 'total_completion_time': 10, 'base_payment': 2, 'total_good_performance': 0.75, 'filler_good_bonus': 0.24000000000000002, 'retrieval_good_bonus': 0.40000000000000013, 'good_payment': 2.6400000000000006, 'filler_cutoff': '75', 'retrieval_cutoff': '50', 'total_cutoff': 57, 'max_bonus': 2.4}",86.0,4.76,37.0,1.63,3.63,,,,,
103,633e4c999cb434415f3c1f28,3643,<p><img src='../stimuli/version1_gray_lm/id083_00C_C.png' ></img><img src='../stimuli/version1_gray_lm/id058_25R_D.png' ></img></p>,100.0,retrieval,151,547818,0.0-139.0,5980128635fbf100017d0861,633e47989d9c0ed6dfbfb57b,633e4a35f3d5004ca815a742,,5jexjydso237vdyzk0bg,"5/10/2022, 23:33:50",Chrome,task_exp2,chris,pilot_prolific_exp2,,,,True,2.0,,,,,,,6.0,,,,,"{'muct_id': '243', 'lighting': 'v', 'race_guess': 'b', 'gender_guess': 'm', 'quality': '3', 'quality_eyes': '3', 'quality_mouth': '3', 'quality_ears': '3', 'quality_hair': '3', 'quality_neck': '3', 'facial_hair': '0.0', 'notes': None, 'race_common': 'black', 'gender_common': 'man'}","{'muct_id': '84', 'lighting': 'q', 'race_guess': 'b', 'gender_guess': 'm', 'quality': '2', 'quality_eyes': '2', 'quality_mouth': '3', 'quality_ears': '3', 'quality_hair': '3', 'quality_neck': '3', 'facial_hair': '3.0', 'notes': 'beard', 'race_common': 'black', 'gender_common': 'man'}",man,083,0.0,0.8226991295814514,black,00C,C,man,058,1.0,0.8285501599311829,4.0,25R,D,black,25R,D,50.0,"['../stimuli/version1_gray_lm/id083_00C_C.png', '../stimuli/version1_gray_lm/id058_25R_D.png']",00C,0.0,,,,,,,,,,,,,,,
104,633e4c999cb434415f3c1f29,2155,"['../stimuli/objectome/234.jpeg', '../stimuli/objectome/221.jpeg', '../stimuli/objectome/225.jpeg']",,filler,92,221641,0.0-89.0,61033627c32742424aeaaac1,633e47989d9c0ed6dfbfb57b,633e4bb7af6ebeb1bb4b8fdf,,js12kftptn31drl3c6lb,"10/5/2022, 8:33:45 PM",Chrome,task_exp2,chris,pilot_prolific_exp2,1.0,chairs,_033,True,1.0,arrowleft,chairs,234.0,_033,within,False,4.0,chairs,"[221, 225]",_031,V0,,,,,,,,,,,,,,,,,,,,,,,,,,,,,,,,,,,,,,
105,633e4c9d9cb434415f3c1f2a,2694,"['../stimuli/objectome/898.jpeg', '../stimuli/objectome/2788.jpeg', '../stimuli/objectome/2764.jpeg']",,filler,94,225283,0.0-91.0,61033627c32742424aeaaac1,633e47989d9c0ed6dfbfb57b,633e4bb7af6ebeb1bb4b8fdf,,js12kftptn31drl3c6lb,"10/5/2022, 8:33:49 PM",Chrome,task_exp2,chris,pilot_prolific_exp2,1.0,animals,ELEPHANT_M,True,1.0,arrowleft,animals,898.0,ELEPHANT_M,within,False,5.0,animals,"[2788, 2764]",hedgehog,V3,,,,,,,,,,,,,,,,,,,,,,,,,,,,,,,,,,,,,,
106,633e4c9d9cb434415f3c1f2b,3633,<p><img src='../stimuli/version1_gray_lm/id104_50R_D.png' ></img><img src='../stimuli/version1_gray_lm/id131_50L_U.png' ></img></p>,100.0,retrieval,153,552304,0.0-141.0,5980128635fbf100017d0861,633e47989d9c0ed6dfbfb57b,633e4a35f3d5004ca815a742,,5jexjydso237vdyzk0bg,"5/10/2022, 23:33:54",Chrome,task_exp2,chris,pilot_prolific_exp2,,,,True,2.0,,,,,,,7.0,,,,,"{'muct_id': '287', 'lighting': 't', 'race_guess': 'w', 'gender_guess': 'm', 'quality': '3', 'quality_eyes': '3', 'quality_mouth': '3', 'quality_ears': '3', 'quality_hair': '3', 'quality_neck': '3', 'facial_hair': '2.0', 'notes': None, 'race_common': 'white', 'gender_common': 'man'}","{'muct_id': '442', 'lighting': 'x', 'race_guess': 'w', 'gender_guess': 'm', 'quality': '3', 'quality_eyes': '3', 'quality_mouth': '3', 'quality_ears': '3', 'quality_hair': '3', 'quality_neck': '3', 'facial_hair': '2.0', 'notes': None, 'race_common': 'white', 'gender_common': 'man'}",man,104,0.0,0.8360703587532043,white,50R,D,man,131,1.0,0.7925350069999695,22.0,50L,U,white,50L,U,50.0,"['../stimuli/version1_gray_lm/id104_50R_D.png', '../stimuli/version1_gray_lm/id131_50L_U.png']",00C,0.0,,,,,,,,,,,,,,,
107,633e4ca19cb434415f3c1f2c,2868,"['../stimuli/objectome/1243.jpeg', '../stimuli/objectome/1539.jpeg', '../stimuli/objectome/1278.jpeg']",,filler,96,228689,0.0-93.0,61033627c32742424aeaaac1,633e47989d9c0ed6dfbfb57b,633e4bb7af6ebeb1bb4b8fdf,,js12kftptn31drl3c6lb,"10/5/2022, 8:33:52 PM",Chrome,task_exp2,chris,pilot_prolific_exp2,1.0,chairs,_001,False,2.0,arrowleft,chairs,1539.0,_031,within,False,6.0,chairs,"[1243, 1278]",_001,V3,,,,,,,,,,,,,,,,,,,,,,,,,,,,,,,,,,,,,,
108,633e4ca19cb434415f3c1f2d,8830,,"{'race5': 'White', 'latinx': 'No', 'gender': 'Female', 'gender_other': '', 'age': '32'}",demographics,216,631530,0.0-204.0,60563ce2975183fc53db9f8a,633e47989d9c0ed6dfbfb57b,633e4a231232c3e826d6d7ea,,ck3qyznsbs531jd13del,"10/5/2022, 9:33:53 PM",Chrome,task_exp2,chris,pilot_prolific_exp2,,,,,,,,,,,,,,,,,,,,,,,,,,,,,,,,,,,,,,,,,,,,,,,,,,32,Female,,No,['White']
109,633e4ca39cb434415f3c1f2e,4986,<p><img src='../stimuli/version1_gray_lm/id127_25R_U.png' ></img><img src='../stimuli/version1_gray_lm/id019_00C_C.png' ></img></p>,19,retrieval,155,558363,0.0-143.0,5980128635fbf100017d0861,633e47989d9c0ed6dfbfb57b,633e4a35f3d5004ca815a742,,5jexjydso237vdyzk0bg,"5/10/2022, 23:34:00",Chrome,task_exp2,chris,pilot_prolific_exp2,,,,True,1.0,,,,,,,8.0,,,,,"{'muct_id': '23', 'lighting': 'q', 'race_guess': 'b', 'gender_guess': 'u', 'quality': '3', 'quality_eyes': '3', 'quality_mouth': '3', 'quality_ears': '3', 'quality_hair': '3', 'quality_neck': '3', 'facial_hair': '0.0', 'notes': None, 'race_common': 'black', 'gender_common': 'woman'}","{'muct_id': '435', 'lighting': 'x', 'race_guess': 'b', 'gender_guess': 'w', 'quality': '3', 'quality_eyes': '3', 'quality_mouth': '3', 'quality_ears': '3', 'quality_hair': '3', 'quality_neck': '3', 'facial_hair': '0.0', 'notes': 'bandana', 'race_common': 'black', 'gender_common': 'woman'}",woman,019,1.0,0.8477416634559631,black,00C,C,woman,127,0.0,0.790308952331543,2.0,25R,U,black,25R,U,50.0,"['../stimuli/version1_gray_lm/id127_25R_U.png', '../stimuli/version1_gray_lm/id019_00C_C.png']",00C,0.0,,,,,,,,,,,,,,,
110,633e4ca59cb434415f3c1f2f,3501,"['../stimuli/objectome/1464.jpeg', '../stimuli/objectome/1286.jpeg', '../stimuli/objectome/1447.jpeg']",,filler,98,232828,0.0-95.0,61033627c32742424aeaaac1,633e47989d9c0ed6dfbfb57b,633e4bb7af6ebeb1bb4b8fdf,,js12kftptn31drl3c6lb,"10/5/2022, 8:33:56 PM",Chrome,task_exp2,chris,pilot_prolific_exp2,2.0,chairs,_004,True,2.0,arrowright,chairs,1286.0,_004,within,False,7.0,chairs,"[1464, 1447]",_014,V3,,,,,,,,,,,,,,,,,,,,,,,,,,,,,,,,,,,,,,
111,633e4ca89cb434415f3c1f30,3042,"['../stimuli/objectome/2795.jpeg', '../stimuli/objectome/2776.jpeg', '../stimuli/objectome/2263.jpeg']",,filler,100,236464,0.0-97.0,61033627c32742424aeaaac1,633e47989d9c0ed6dfbfb57b,633e4bb7af6ebeb1bb4b8fdf,,js12kftptn31drl3c6lb,"10/5/2022, 8:34:00 PM",Chrome,task_exp2,chris,pilot_prolific_exp2,3.0,animals,breed_pug,True,3.0,arrowdown,animals,2263.0,breed_pug,within,False,8.0,animals,"[2795, 2776]",hedgehog,V3,,,,,,,,,,,,,,,,,,,,,,,,,,,,,,,,,,,,,,
112,633e4ca89cb434415f3c1f31,4136,<p><img src='../stimuli/version1_gray_lm/id098_00C_D.png' ></img><img src='../stimuli/version1_gray_lm/id136_25L_D.png' ></img></p>,16,retrieval,157,563456,0.0-145.0,5980128635fbf100017d0861,633e47989d9c0ed6dfbfb57b,633e4a35f3d5004ca815a742,,5jexjydso237vdyzk0bg,"5/10/2022, 23:34:05",Chrome,task_exp2,chris,pilot_prolific_exp2,,,,True,1.0,,,,,,,9.0,,,,,"{'muct_id': '616', 'lighting': 'y', 'race_guess': 'b', 'gender_guess': 'w', 'quality': '3', 'quality_eyes': '3', 'quality_mouth': '3', 'quality_ears': '3', 'quality_hair': '3', 'quality_neck': '3', 'facial_hair': '0.0', 'notes': 'earrings', 'race_common': 'black', 'gender_common': 'woman'}","{'muct_id': '274', 'lighting': 't', 'race_guess': 'b', 'gender_guess': 'm', 'quality': '3', 'quality_eyes': '3', 'quality_mouth': '3', 'quality_ears': '3', 'quality_hair': '3', 'quality_neck': '3', 'facial_hair': '4.0', 'notes': None, 'race_common': 'black', 'gender_common': 'man'}",woman,136,1.0,0.8473916053771973,black,25L,D,man,098,0.0,0.8749359846115112,8.0,00C,D,black,00C,D,50.0,"['../stimuli/version1_gray_lm/id098_00C_D.png', '../stimuli/version1_gray_lm/id136_25L_D.png']",00C,0.0,,,,,,,,,,,,,,,
113,633e4cab9cb434415f3c1f32,2166,"['../stimuli/objectome/2814.jpeg', '../stimuli/objectome/1865.jpeg', '../stimuli/objectome/1851.jpeg']",,filler,102,239515,0.0-99.0,61033627c32742424aeaaac1,633e47989d9c0ed6dfbfb57b,633e4bb7af6ebeb1bb4b8fdf,,js12kftptn31drl3c6lb,"10/5/2022, 8:34:03 PM",Chrome,task_exp2,chris,pilot_prolific_exp2,3.0,planes,_19_flyingBoat,False,1.0,arrowdown,planes,2814.0,junkers88,within,False,9.0,planes,"[1865, 1851]",_19_flyingBoat,V3,,,,,,,,,,,,,,,,,,,,,,,,,,,,,,,,,,,,,,
114,633e4cae9cb434415f3c1f33,1667,"['../stimuli/objectome/3017.jpeg', '../stimuli/objectome/2401.jpeg', '../stimuli/objectome/3011.jpeg']",,filler,104,241726,0.0-101.0,61033627c32742424aeaaac1,633e47989d9c0ed6dfbfb57b,633e4bb7af6ebeb1bb4b8fdf,,js12kftptn31drl3c6lb,"10/5/2022, 8:34:05 PM",Chrome,task_exp2,chris,pilot_prolific_exp2,2.0,planes,f16,True,2.0,arrowright,planes,2401.0,f16,within,False,10.0,planes,"[3017, 3011]",sopwith,V3,,,,,,,,,,,,,,,,,,,,,,,,,,,,,,,,,,,,,,
115,633e4cae9cb434415f3c1f34,4284,<p><img src='../stimuli/version1_gray_lm/id118_00C_D.png' ></img><img src='../stimuli/version1_gray_lm/id121_25L_D.png' ></img></p>,85,retrieval,159,568763,0.0-147.0,5980128635fbf100017d0861,633e47989d9c0ed6dfbfb57b,633e4a35f3d5004ca815a742,,5jexjydso237vdyzk0bg,"5/10/2022, 23:34:10",Chrome,task_exp2,chris,pilot_prolific_exp2,,,,False,1.0,,,,,,,10.0,,,,,"{'muct_id': '423', 'lighting': 'w', 'race_guess': 'b', 'gender_guess': 'm', 'quality': '3', 'quality_eyes': '3', 'quality_mouth': '3', 'quality_ears': '3', 'quality_hair': '3', 'quality_neck': '3', 'facial_hair': '1.0', 'notes': None, 'race_common': 'black', 'gender_common': 'man'}","{'muct_id': '419', 'lighting': 'x', 'race_guess': 'b', 'gender_guess': 'm', 'quality': '3', 'quality_eyes': '3', 'quality_mouth': '3', 'quality_ears': '3', 'quality_hair': '3', 'quality_neck': '3', 'facial_hair': '1.0', 'notes': None, 'race_common': 'black', 'gender_common': 'man'}",man,121,1.0,0.8643362522125244,black,25L,D,man,118,0.0,0.8874856233596802,35.0,25R,D,black,00C,D,50.0,"['../stimuli/version1_gray_lm/id118_00C_D.png', '../stimuli/version1_gray_lm/id121_25L_D.png']",25L,-25.0,,,,,,,,,,,,,,,
116,633e4cb19cb434415f3c1f35,2938,"['../stimuli/objectome/1265.jpeg', '../stimuli/objectome/1273.jpeg', '../stimuli/objectome/1357.jpeg']",,filler,106,245281,0.0-103.0,61033627c32742424aeaaac1,633e47989d9c0ed6dfbfb57b,633e4bb7af6ebeb1bb4b8fdf,,js12kftptn31drl3c6lb,"10/5/2022, 8:34:09 PM",Chrome,task_exp2,chris,pilot_prolific_exp2,3.0,chairs,_008,True,3.0,arrowdown,chairs,1357.0,_008,within,False,11.0,chairs,"[1265, 1273]",_001,V3,,,,,,,,,,,,,,,,,,,,,,,,,,,,,,,,,,,,,,
117,633e4cb29cb434415f3c1f36,3262,<p><img src='../stimuli/version1_gray_lm/id155_25R_C.png' ></img><img src='../stimuli/version1_gray_lm/id043_00C_C.png' ></img></p>,0,retrieval,161,573117,0.0-149.0,5980128635fbf100017d0861,633e47989d9c0ed6dfbfb57b,633e4a35f3d5004ca815a742,,5jexjydso237vdyzk0bg,"5/10/2022, 23:34:15",Chrome,task_exp2,chris,pilot_prolific_exp2,,,,True,1.0,,,,,,,11.0,,,,,"{'muct_id': '58', 'lighting': 'q', 'race_guess': 'w', 'gender_guess': 'm', 'quality': '3', 'quality_eyes': '3', 'quality_mouth': '3', 'quality_ears': '3', 'quality_hair': '3', 'quality_neck': '3', 'facial_hair': '0.0', 'notes': None, 'race_common': 'white', 'gender_common': 'man'}","{'muct_id': '615', 'lighting': 'z', 'race_guess': 'w', 'gender_guess': 'w', 'quality': '3', 'quality_eyes': '3', 'quality_mouth': '3', 'quality_ears': '3', 'quality_hair': '3', 'quality_neck': '3', 'facial_hair': '0.0', 'notes': 'earrings', 'race_common': 'white', 'gender_common': 'woman'}",man,043,1.0,0.8674020767211914,white,00C,C,woman,155,0.0,0.8280897736549377,20.0,25R,C,white,25R,C,50.0,"['../stimuli/version1_gray_lm/id155_25R_C.png', '../stimuli/version1_gray_lm/id043_00C_C.png']",00C,0.0,,,,,,,,,,,,,,,
118,633e4cb39cb434415f3c1f37,1741,"['../stimuli/objectome/377.jpeg', '../stimuli/objectome/537.jpeg', '../stimuli/objectome/370.jpeg']",,filler,108,247580,0.0-105.0,61033627c32742424aeaaac1,633e47989d9c0ed6dfbfb57b,633e4bb7af6ebeb1bb4b8fdf,,js12kftptn31drl3c6lb,"10/5/2022, 8:34:11 PM",Chrome,task_exp2,chris,pilot_prolific_exp2,2.0,animals,hedgehog,True,2.0,arrowright,animals,537.0,hedgehog,within,False,12.0,animals,"[377, 370]",blCow,V0,,,,,,,,,,,,,,,,,,,,,,,,,,,,,,,,,,,,,,
