,_id,rt,stimulus,response,trial_type,trial_index,time_elapsed,internal_node_id,subject_id,study_id,session_id,last_trial_type,experiment_id,datetime,browser,collection,database,iteration,choice,choice_category,choice_object,correct,correct_response,key_press,oddity_category,oddity_index,oddity_name,oddity_type,timed_out,trial_number,typical_category,typical_indices,typical_name,variation_level,meta_new,meta_old,new_gender,new_identity,new_index,new_mb,new_race,new_tiltLR,new_tiltUD,old_gender,old_identity,old_index,old_mb,old_original_index,old_original_tiltLR,old_original_tiltUD,old_race,old_tiltLR,old_tiltUD,slider_start,stimuli,tilt_change,tilt_difference,experimental_duration,filler_accuracy,filler_avg_rt,filler_n_trials,params,retrieval_accuracy,retrieval_avg_rt,retrieval_n_trials,total_bonus,total_payment,age,gender,gender_other,latinx,race
659,6345f5349cb434415f3c2154,2937,<p style='font-size: 150%'><b>You have finished Part 1!</b></p><p>Click 'Next' to continue to Part 2.</p>,0,bonus_update,83,278122,0.0-83.0,60b086e07a56549b8b182f8a,633e47989d9c0ed6dfbfb57b,6345f36c759c3428cbeb2db2,encoding,av7e29z4b64zkazn9kml,"10/11/2022, 3:59:00 PM",Chrome,task_exp2,chris,pilot_prolific_exp2.2,,,,,,,,,,,,,,,,,,,,,,,,,,,,,,,,,,,,,,,,,,,,,,,,,,,,,,
660,6345f5559cb434415f3c2155,3228,"['../stimuli/objectome/1514.jpeg', '../stimuli/objectome/1492.jpeg', '../stimuli/objectome/2843.jpeg']",,filler,85,311664,0.0-85.0-0.0,60b086e07a56549b8b182f8a,633e47989d9c0ed6dfbfb57b,6345f36c759c3428cbeb2db2,,av7e29z4b64zkazn9kml,"10/11/2022, 3:59:33 PM",Chrome,task_exp2,chris,pilot_prolific_exp2.2,3.0,planes,mig29,True,3.0,arrowdown,planes,2843.0,mig29,within,False,1.0,planes,"[1514, 1492]",_01_Airliner_2jetEngines,V3,,,,,,,,,,,,,,,,,,,,,,,,,,,,,,,,,,,,,,
661,6345f5599cb434415f3c2156,2207,"['../stimuli/objectome/2417.jpeg', '../stimuli/objectome/1846.jpeg', '../stimuli/objectome/1872.jpeg']",,filler,87,315741,0.0-86.0-0.0,60b086e07a56549b8b182f8a,633e47989d9c0ed6dfbfb57b,6345f36c759c3428cbeb2db2,,av7e29z4b64zkazn9kml,"10/11/2022, 3:59:37 PM",Chrome,task_exp2,chris,pilot_prolific_exp2.2,1.0,planes,f16,True,1.0,arrowleft,planes,2417.0,f16,within,False,2.0,planes,"[1846, 1872]",_19_flyingBoat,V3,,,,,,,,,,,,,,,,,,,,,,,,,,,,,,,,,,,,,,
662,6345f55c9cb434415f3c2157,3029,<p style='font-size: 150%'><b>You have finished Part 1!</b></p><p>Click 'Next' to continue to Part 2.</p>,0,bonus_update,83,200607,0.0-83.0,61010cf76dbeae43033e1729,633e47989d9c0ed6dfbfb57b,6345f4638ad0a8b2bda1aec9,encoding,0mr3yahvscry2m1qthcd,"10/11/2022, 4:59:40 PM",Chrome,task_exp2,chris,pilot_prolific_exp2.2,,,,,,,,,,,,,,,,,,,,,,,,,,,,,,,,,,,,,,,,,,,,,,,,,,,,,,
663,6345f55d9cb434415f3c2158,2039,"['../stimuli/objectome/1631.jpeg', '../stimuli/objectome/2419.jpeg', '../stimuli/objectome/2421.jpeg']",,filler,89,319085,0.0-87.0-0.0,60b086e07a56549b8b182f8a,633e47989d9c0ed6dfbfb57b,6345f36c759c3428cbeb2db2,,av7e29z4b64zkazn9kml,"10/11/2022, 3:59:41 PM",Chrome,task_exp2,chris,pilot_prolific_exp2.2,1.0,planes,_05_future,True,1.0,arrowleft,planes,1631.0,_05_future,within,False,3.0,planes,"[2419, 2421]",f16,V3,,,,,,,,,,,,,,,,,,,,,,,,,,,,,,,,,,,,,,
664,6345f5629cb434415f3c2159,1830,"['../stimuli/objectome/2796.jpeg', '../stimuli/objectome/993.jpeg', '../stimuli/objectome/2782.jpeg']",,filler,92,324757,0.0-89.0,60b086e07a56549b8b182f8a,633e47989d9c0ed6dfbfb57b,6345f36c759c3428cbeb2db2,,av7e29z4b64zkazn9kml,"10/11/2022, 3:59:46 PM",Chrome,task_exp2,chris,pilot_prolific_exp2.2,2.0,animals,LIONESS,True,2.0,arrowright,animals,993.0,LIONESS,within,False,4.0,animals,"[2796, 2782]",hedgehog,V3,,,,,,,,,,,,,,,,,,,,,,,,,,,,,,,,,,,,,,
665,6345f5659cb434415f3c215a,1287,"['../stimuli/objectome/85.jpeg', '../stimuli/objectome/82.jpeg', '../stimuli/objectome/66.jpeg']",,filler,94,326893,0.0-91.0,60b086e07a56549b8b182f8a,633e47989d9c0ed6dfbfb57b,6345f36c759c3428cbeb2db2,,av7e29z4b64zkazn9kml,"10/11/2022, 3:59:49 PM",Chrome,task_exp2,chris,pilot_prolific_exp2.2,3.0,animals,ELEPHANT_M,True,3.0,arrowdown,animals,66.0,ELEPHANT_M,within,False,5.0,animals,"[85, 82]",LIONESS,V0,,,,,,,,,,,,,,,,,,,,,,,,,,,,,,,,,,,,,,
666,6345f5689cb434415f3c215b,2535,"['../stimuli/objectome/1435.jpeg', '../stimuli/objectome/1574.jpeg', '../stimuli/objectome/1576.jpeg']",,filler,96,330141,0.0-93.0,60b086e07a56549b8b182f8a,633e47989d9c0ed6dfbfb57b,6345f36c759c3428cbeb2db2,,av7e29z4b64zkazn9kml,"10/11/2022, 3:59:52 PM",Chrome,task_exp2,chris,pilot_prolific_exp2.2,1.0,chairs,_011,True,1.0,arrowleft,chairs,1435.0,_011,within,False,6.0,chairs,"[1574, 1576]",_033,V3,,,,,,,,,,,,,,,,,,,,,,,,,,,,,,,,,,,,,,
667,6345f56a9cb434415f3c215c,1575,"['../stimuli/objectome/1431.jpeg', '../stimuli/objectome/1409.jpeg', '../stimuli/objectome/1471.jpeg']",,filler,98,332653,0.0-95.0,60b086e07a56549b8b182f8a,633e47989d9c0ed6dfbfb57b,6345f36c759c3428cbeb2db2,,av7e29z4b64zkazn9kml,"10/11/2022, 3:59:54 PM",Chrome,task_exp2,chris,pilot_prolific_exp2.2,3.0,chairs,_014,True,3.0,arrowdown,chairs,1471.0,_014,within,False,7.0,chairs,"[1431, 1409]",_011,V3,,,,,,,,,,,,,,,,,,,,,,,,,,,,,,,,,,,,,,
668,6345f56e9cb434415f3c215d,3072,"['../stimuli/objectome/2415.jpeg', '../stimuli/objectome/1622.jpeg', '../stimuli/objectome/1635.jpeg']",,filler,100,336365,0.0-97.0,60b086e07a56549b8b182f8a,633e47989d9c0ed6dfbfb57b,6345f36c759c3428cbeb2db2,,av7e29z4b64zkazn9kml,"10/11/2022, 3:59:58 PM",Chrome,task_exp2,chris,pilot_prolific_exp2.2,1.0,planes,f16,True,1.0,arrowleft,planes,2415.0,f16,within,False,8.0,planes,"[1622, 1635]",_05_future,V3,,,,,,,,,,,,,,,,,,,,,,,,,,,,,,,,,,,,,,
669,6345f5719cb434415f3c215e,2103,"['../stimuli/objectome/1550.jpeg', '../stimuli/objectome/1261.jpeg', '../stimuli/objectome/1246.jpeg']",,filler,102,339044,0.0-99.0,60b086e07a56549b8b182f8a,633e47989d9c0ed6dfbfb57b,6345f36c759c3428cbeb2db2,,av7e29z4b64zkazn9kml,"10/11/2022, 4:00:01 PM",Chrome,task_exp2,chris,pilot_prolific_exp2.2,1.0,chairs,_031,True,1.0,arrowleft,chairs,1550.0,_031,within,False,9.0,chairs,"[1261, 1246]",_001,V3,,,,,,,,,,,,,,,,,,,,,,,,,,,,,,,,,,,,,,
670,6345f5749cb434415f3c215f,1855,"['../stimuli/objectome/1313.jpeg', '../stimuli/objectome/1246.jpeg', '../stimuli/objectome/1299.jpeg']",,filler,104,342156,0.0-101.0,60b086e07a56549b8b182f8a,633e47989d9c0ed6dfbfb57b,6345f36c759c3428cbeb2db2,,av7e29z4b64zkazn9kml,"10/11/2022, 4:00:04 PM",Chrome,task_exp2,chris,pilot_prolific_exp2.2,2.0,chairs,_001,True,2.0,arrowright,chairs,1246.0,_001,within,False,10.0,chairs,"[1313, 1299]",_004,V3,,,,,,,,,,,,,,,,,,,,,,,,,,,,,,,,,,,,,,
671,6345f5769cb434415f3c2160,1279,"['../stimuli/objectome/166.jpeg', '../stimuli/objectome/233.jpeg', '../stimuli/objectome/164.jpeg']",,filler,106,344540,0.0-103.0,60b086e07a56549b8b182f8a,633e47989d9c0ed6dfbfb57b,6345f36c759c3428cbeb2db2,,av7e29z4b64zkazn9kml,"10/11/2022, 4:00:06 PM",Chrome,task_exp2,chris,pilot_prolific_exp2.2,2.0,chairs,_033,True,2.0,arrowright,chairs,233.0,_033,within,False,11.0,chairs,"[166, 164]",_004,V0,,,,,,,,,,,,,,,,,,,,,,,,,,,,,,,,,,,,,,
672,6345f5789cb434415f3c2161,1575,"['../stimuli/objectome/2139.jpeg', '../stimuli/objectome/1230.jpeg', '../stimuli/objectome/1233.jpeg']",,filler,108,346716,0.0-105.0,60b086e07a56549b8b182f8a,633e47989d9c0ed6dfbfb57b,6345f36c759c3428cbeb2db2,,av7e29z4b64zkazn9kml,"10/11/2022, 4:00:08 PM",Chrome,task_exp2,chris,pilot_prolific_exp2.2,1.0,animals,blCow,True,1.0,arrowleft,animals,2139.0,blCow,within,False,12.0,animals,"[1230, 1233]",TURTLE_L,V3,,,,,,,,,,,,,,,,,,,,,,,,,,,,,,,,,,,,,,
673,6345f57a9cb434415f3c2162,1279,"['../stimuli/objectome/2787.jpeg', '../stimuli/objectome/2788.jpeg', '../stimuli/objectome/1222.jpeg']",,filler,110,348572,0.0-107.0,60b086e07a56549b8b182f8a,633e47989d9c0ed6dfbfb57b,6345f36c759c3428cbeb2db2,,av7e29z4b64zkazn9kml,"10/11/2022, 4:00:10 PM",Chrome,task_exp2,chris,pilot_prolific_exp2.2,3.0,animals,TURTLE_L,True,3.0,arrowdown,animals,1222.0,TURTLE_L,within,False,13.0,animals,"[2787, 2788]",hedgehog,V3,,,,,,,,,,,,,,,,,,,,,,,,,,,,,,,,,,,,,,
674,6345f57d9cb434415f3c2163,1783,"['../stimuli/objectome/2092.jpeg', '../stimuli/objectome/2130.jpeg', '../stimuli/objectome/2122.jpeg']",,filler,112,350956,0.0-109.0,60b086e07a56549b8b182f8a,633e47989d9c0ed6dfbfb57b,6345f36c759c3428cbeb2db2,,av7e29z4b64zkazn9kml,"10/11/2022, 4:00:13 PM",Chrome,task_exp2,chris,pilot_prolific_exp2.2,1.0,animals,bear,True,1.0,arrowleft,animals,2092.0,bear,within,False,14.0,animals,"[2130, 2122]",blCow,V3,,,,,,,,,,,,,,,,,,,,,,,,,,,,,,,,,,,,,,
675,6345f57f9cb434415f3c2164,1519,"['../stimuli/objectome/1584.jpeg', '../stimuli/objectome/1340.jpeg', '../stimuli/objectome/1592.jpeg']",,filler,114,353460,0.0-111.0,60b086e07a56549b8b182f8a,633e47989d9c0ed6dfbfb57b,6345f36c759c3428cbeb2db2,,av7e29z4b64zkazn9kml,"10/11/2022, 4:00:15 PM",Chrome,task_exp2,chris,pilot_prolific_exp2.2,2.0,chairs,_008,True,2.0,arrowright,chairs,1340.0,_008,within,False,15.0,chairs,"[1584, 1592]",_033,V3,,,,,,,,,,,,,,,,,,,,,,,,,,,,,,,,,,,,,,
676,6345f5829cb434415f3c2165,1495,"['../stimuli/objectome/1302.jpeg', '../stimuli/objectome/1531.jpeg', '../stimuli/objectome/1280.jpeg']",,filler,116,356220,0.0-113.0,60b086e07a56549b8b182f8a,633e47989d9c0ed6dfbfb57b,6345f36c759c3428cbeb2db2,,av7e29z4b64zkazn9kml,"10/11/2022, 4:00:18 PM",Chrome,task_exp2,chris,pilot_prolific_exp2.2,2.0,chairs,_031,True,2.0,arrowright,chairs,1531.0,_031,within,False,16.0,chairs,"[1302, 1280]",_004,V3,,,,,,,,,,,,,,,,,,,,,,,,,,,,,,,,,,,,,,
677,6345f5849cb434415f3c2166,1905,"['../stimuli/objectome/895.jpeg', '../stimuli/objectome/969.jpeg', '../stimuli/objectome/892.jpeg']",,filler,85,240214,0.0-85.0-0.0,61010cf76dbeae43033e1729,633e47989d9c0ed6dfbfb57b,6345f4638ad0a8b2bda1aec9,,0mr3yahvscry2m1qthcd,"10/11/2022, 5:00:20 PM",Chrome,task_exp2,chris,pilot_prolific_exp2.2,2.0,animals,LIONESS,True,2.0,arrowright,animals,969.0,LIONESS,within,False,1.0,animals,"[895, 892]",ELEPHANT_M,V3,,,,,,,,,,,,,,,,,,,,,,,,,,,,,,,,,,,,,,
678,6345f5859cb434415f3c2167,2775,"['../stimuli/objectome/951.jpeg', '../stimuli/objectome/2110.jpeg', '../stimuli/objectome/2100.jpeg']",,filler,118,359604,0.0-115.0,60b086e07a56549b8b182f8a,633e47989d9c0ed6dfbfb57b,6345f36c759c3428cbeb2db2,,av7e29z4b64zkazn9kml,"10/11/2022, 4:00:21 PM",Chrome,task_exp2,chris,pilot_prolific_exp2.2,1.0,animals,GORILLA,True,1.0,arrowleft,animals,951.0,GORILLA,within,False,17.0,animals,"[2110, 2100]",bear,V3,,,,,,,,,,,,,,,,,,,,,,,,,,,,,,,,,,,,,,
679,6345f5889cb434415f3c2168,2033,"['../stimuli/objectome/933.jpeg', '../stimuli/objectome/2107.jpeg', '../stimuli/objectome/934.jpeg']",,filler,87,244434,0.0-86.0-0.0,61010cf76dbeae43033e1729,633e47989d9c0ed6dfbfb57b,6345f4638ad0a8b2bda1aec9,,0mr3yahvscry2m1qthcd,"10/11/2022, 5:00:24 PM",Chrome,task_exp2,chris,pilot_prolific_exp2.2,2.0,animals,bear,True,2.0,arrowright,animals,2107.0,bear,within,False,2.0,animals,"[933, 934]",GORILLA,V3,,,,,,,,,,,,,,,,,,,,,,,,,,,,,,,,,,,,,,
680,6345f5899cb434415f3c2169,2287,"['../stimuli/objectome/2264.jpeg', '../stimuli/objectome/969.jpeg', '../stimuli/objectome/999.jpeg']",,filler,120,362932,0.0-117.0,60b086e07a56549b8b182f8a,633e47989d9c0ed6dfbfb57b,6345f36c759c3428cbeb2db2,,av7e29z4b64zkazn9kml,"10/11/2022, 4:00:25 PM",Chrome,task_exp2,chris,pilot_prolific_exp2.2,1.0,animals,breed_pug,True,1.0,arrowleft,animals,2264.0,breed_pug,within,False,18.0,animals,"[969, 999]",LIONESS,V3,,,,,,,,,,,,,,,,,,,,,,,,,,,,,,,,,,,,,,
681,6345f58b9cb434415f3c216a,1511,"['../stimuli/objectome/2417.jpeg', '../stimuli/objectome/1846.jpeg', '../stimuli/objectome/1872.jpeg']",,filler,122,365204,0.0-119.0,60b086e07a56549b8b182f8a,633e47989d9c0ed6dfbfb57b,6345f36c759c3428cbeb2db2,,av7e29z4b64zkazn9kml,"10/11/2022, 4:00:27 PM",Chrome,task_exp2,chris,pilot_prolific_exp2.2,1.0,planes,f16,True,1.0,arrowleft,planes,2417.0,f16,within,False,19.0,planes,"[1846, 1872]",_19_flyingBoat,V3,,,,,,,,,,,,,,,,,,,,,,,,,,,,,,,,,,,,,,
682,6345f58b9cb434415f3c216b,1994,"['../stimuli/objectome/190.jpeg', '../stimuli/objectome/191.jpeg', '../stimuli/objectome/221.jpeg']",,filler,89,247484,0.0-87.0-0.0,61010cf76dbeae43033e1729,633e47989d9c0ed6dfbfb57b,6345f4638ad0a8b2bda1aec9,,0mr3yahvscry2m1qthcd,"10/11/2022, 5:00:27 PM",Chrome,task_exp2,chris,pilot_prolific_exp2.2,3.0,chairs,_031,True,3.0,arrowdown,chairs,221.0,_031,within,False,3.0,chairs,"[190, 191]",_011,V0,,,,,,,,,,,,,,,,,,,,,,,,,,,,,,,,,,,,,,
683,6345f58d9cb434415f3c216c,2023,"['../stimuli/objectome/1841.jpeg', '../stimuli/objectome/2801.jpeg', '../stimuli/objectome/1859.jpeg']",,filler,124,367748,0.0-121.0,60b086e07a56549b8b182f8a,633e47989d9c0ed6dfbfb57b,6345f36c759c3428cbeb2db2,,av7e29z4b64zkazn9kml,"10/11/2022, 4:00:29 PM",Chrome,task_exp2,chris,pilot_prolific_exp2.2,2.0,planes,junkers88,True,2.0,arrowright,planes,2801.0,junkers88,within,False,20.0,planes,"[1841, 1859]",_19_flyingBoat,V3,,,,,,,,,,,,,,,,,,,,,,,,,,,,,,,,,,,,,,
684,6345f5939cb434415f3c216d,4575,"<p style='font-size: 150%'><b>You have finished Part 2!</b></p><p>Nice job! On this section, you averaged <b>100% accuracy</b>.</p><p>You're on track to earn a good bonus. Keep up the good work!</p><p>Click 'Next' to continue to Part 3.</p>",0,bonus_update,126,372868,0.0-123.0,60b086e07a56549b8b182f8a,633e47989d9c0ed6dfbfb57b,6345f36c759c3428cbeb2db2,filler,av7e29z4b64zkazn9kml,"10/11/2022, 4:00:35 PM",Chrome,task_exp2,chris,pilot_prolific_exp2.2,,,,,,,,,,,,,,,,,,,,,,,,,,,,,,,,,,,,,,,,,,,,,,,,,,,,,,
685,6345f5939cb434415f3c216e,1719,"['../stimuli/objectome/1317.jpeg', '../stimuli/objectome/1311.jpeg', '../stimuli/objectome/1399.jpeg']",,filler,92,254860,0.0-89.0,61010cf76dbeae43033e1729,633e47989d9c0ed6dfbfb57b,6345f4638ad0a8b2bda1aec9,,0mr3yahvscry2m1qthcd,"10/11/2022, 5:00:35 PM",Chrome,task_exp2,chris,pilot_prolific_exp2.2,3.0,chairs,_010,True,3.0,arrowdown,chairs,1399.0,_010,within,False,4.0,chairs,"[1317, 1311]",_004,V3,,,,,,,,,,,,,,,,,,,,,,,,,,,,,,,,,,,,,,
686,6345f5979cb434415f3c216f,2561,"['../stimuli/objectome/2866.jpeg', '../stimuli/objectome/1625.jpeg', '../stimuli/objectome/2864.jpeg']",,filler,94,258743,0.0-91.0,61010cf76dbeae43033e1729,633e47989d9c0ed6dfbfb57b,6345f4638ad0a8b2bda1aec9,,0mr3yahvscry2m1qthcd,"10/11/2022, 5:00:38 PM",Chrome,task_exp2,chris,pilot_prolific_exp2.2,2.0,planes,_05_future,True,2.0,arrowright,planes,1625.0,_05_future,within,False,5.0,planes,"[2866, 2864]",mig29,V3,,,,,,,,,,,,,,,,,,,,,,,,,,,,,,,,,,,,,,
687,6345f59a9cb434415f3c2170,2378,"['../stimuli/objectome/2760.jpeg', '../stimuli/objectome/2139.jpeg', '../stimuli/objectome/2153.jpeg']",,filler,96,261955,0.0-93.0,61010cf76dbeae43033e1729,633e47989d9c0ed6dfbfb57b,6345f4638ad0a8b2bda1aec9,,0mr3yahvscry2m1qthcd,"10/11/2022, 5:00:42 PM",Chrome,task_exp2,chris,pilot_prolific_exp2.2,1.0,animals,hedgehog,True,1.0,arrowleft,animals,2760.0,hedgehog,within,False,6.0,animals,"[2139, 2153]",blCow,V3,,,,,,,,,,,,,,,,,,,,,,,,,,,,,,,,,,,,,,
688,6345f59c9cb434415f3c2171,1684,"['../stimuli/objectome/69.jpeg', '../stimuli/objectome/68.jpeg', '../stimuli/objectome/408.jpeg']",,filler,98,264607,0.0-95.0,61010cf76dbeae43033e1729,633e47989d9c0ed6dfbfb57b,6345f4638ad0a8b2bda1aec9,,0mr3yahvscry2m1qthcd,"10/11/2022, 5:00:44 PM",Chrome,task_exp2,chris,pilot_prolific_exp2.2,3.0,animals,breed_pug,True,3.0,arrowdown,animals,408.0,breed_pug,within,False,7.0,animals,"[69, 68]",ELEPHANT_M,V0,,,,,,,,,,,,,,,,,,,,,,,,,,,,,,,,,,,,,,
689,6345f5a09cb434415f3c2172,2115,"['../stimuli/objectome/2122.jpeg', '../stimuli/objectome/2762.jpeg', '../stimuli/objectome/2150.jpeg']",,filler,100,267926,0.0-97.0,61010cf76dbeae43033e1729,633e47989d9c0ed6dfbfb57b,6345f4638ad0a8b2bda1aec9,,0mr3yahvscry2m1qthcd,"10/11/2022, 5:00:48 PM",Chrome,task_exp2,chris,pilot_prolific_exp2.2,2.0,animals,hedgehog,True,2.0,arrowright,animals,2762.0,hedgehog,within,False,8.0,animals,"[2122, 2150]",blCow,V3,,,,,,,,,,,,,,,,,,,,,,,,,,,,,,,,,,,,,,
690,6345f5a39cb434415f3c2173,2061,"['../stimuli/objectome/1550.jpeg', '../stimuli/objectome/1357.jpeg', '../stimuli/objectome/1559.jpeg']",,filler,102,271264,0.0-99.0,61010cf76dbeae43033e1729,633e47989d9c0ed6dfbfb57b,6345f4638ad0a8b2bda1aec9,,0mr3yahvscry2m1qthcd,"10/11/2022, 5:00:51 PM",Chrome,task_exp2,chris,pilot_prolific_exp2.2,2.0,chairs,_008,True,2.0,arrowright,chairs,1357.0,_008,within,False,9.0,chairs,"[1550, 1559]",_031,V3,,,,,,,,,,,,,,,,,,,,,,,,,,,,,,,,,,,,,,
691,6345f5a69cb434415f3c2174,2164,"['../stimuli/objectome/964.jpeg', '../stimuli/objectome/905.jpeg', '../stimuli/objectome/889.jpeg']",,filler,104,274573,0.0-101.0,61010cf76dbeae43033e1729,633e47989d9c0ed6dfbfb57b,6345f4638ad0a8b2bda1aec9,,0mr3yahvscry2m1qthcd,"10/11/2022, 5:00:54 PM",Chrome,task_exp2,chris,pilot_prolific_exp2.2,1.0,animals,LIONESS,True,1.0,arrowleft,animals,964.0,LIONESS,within,False,10.0,animals,"[905, 889]",ELEPHANT_M,V3,,,,,,,,,,,,,,,,,,,,,,,,,,,,,,,,,,,,,,
692,6345f5aa9cb434415f3c2175,3093,"['../stimuli/objectome/2866.jpeg', '../stimuli/objectome/1625.jpeg', '../stimuli/objectome/2864.jpeg']",,filler,106,278569,0.0-103.0,61010cf76dbeae43033e1729,633e47989d9c0ed6dfbfb57b,6345f4638ad0a8b2bda1aec9,,0mr3yahvscry2m1qthcd,"10/11/2022, 5:00:58 PM",Chrome,task_exp2,chris,pilot_prolific_exp2.2,2.0,planes,_05_future,True,2.0,arrowright,planes,1625.0,_05_future,within,False,11.0,planes,"[2866, 2864]",mig29,V3,,,,,,,,,,,,,,,,,,,,,,,,,,,,,,,,,,,,,,
693,6345f5ae9cb434415f3c2176,2274,"['../stimuli/objectome/1302.jpeg', '../stimuli/objectome/1531.jpeg', '../stimuli/objectome/1280.jpeg']",,filler,108,281823,0.0-105.0,61010cf76dbeae43033e1729,633e47989d9c0ed6dfbfb57b,6345f4638ad0a8b2bda1aec9,,0mr3yahvscry2m1qthcd,"10/11/2022, 5:01:02 PM",Chrome,task_exp2,chris,pilot_prolific_exp2.2,2.0,chairs,_031,True,2.0,arrowright,chairs,1531.0,_031,within,False,12.0,chairs,"[1302, 1280]",_004,V3,,,,,,,,,,,,,,,,,,,,,,,,,,,,,,,,,,,,,,
694,6345f5b19cb434415f3c2177,2260,"['../stimuli/objectome/1429.jpeg', '../stimuli/objectome/1573.jpeg', '../stimuli/objectome/1409.jpeg']",,filler,110,285218,0.0-107.0,61010cf76dbeae43033e1729,633e47989d9c0ed6dfbfb57b,6345f4638ad0a8b2bda1aec9,,0mr3yahvscry2m1qthcd,"10/11/2022, 5:01:05 PM",Chrome,task_exp2,chris,pilot_prolific_exp2.2,2.0,chairs,_033,True,2.0,arrowright,chairs,1573.0,_033,within,False,13.0,chairs,"[1429, 1409]",_011,V3,,,,,,,,,,,,,,,,,,,,,,,,,,,,,,,,,,,,,,
695,6345f5b49cb434415f3c2178,2317,"['../stimuli/objectome/1863.jpeg', '../stimuli/objectome/1871.jpeg', '../stimuli/objectome/1600.jpeg']",,filler,112,288617,0.0-109.0,61010cf76dbeae43033e1729,633e47989d9c0ed6dfbfb57b,6345f4638ad0a8b2bda1aec9,,0mr3yahvscry2m1qthcd,"10/11/2022, 5:01:08 PM",Chrome,task_exp2,chris,pilot_prolific_exp2.2,3.0,planes,_05_future,True,3.0,arrowdown,planes,1600.0,_05_future,within,False,14.0,planes,"[1863, 1871]",_19_flyingBoat,V3,,,,,,,,,,,,,,,,,,,,,,,,,,,,,,,,,,,,,,
696,6345f5b79cb434415f3c2179,1797,"['../stimuli/objectome/1482.jpeg', '../stimuli/objectome/1511.jpeg', '../stimuli/objectome/2406.jpeg']",,filler,114,291614,0.0-111.0,61010cf76dbeae43033e1729,633e47989d9c0ed6dfbfb57b,6345f4638ad0a8b2bda1aec9,,0mr3yahvscry2m1qthcd,"10/11/2022, 5:01:11 PM",Chrome,task_exp2,chris,pilot_prolific_exp2.2,3.0,planes,f16,True,3.0,arrowdown,planes,2406.0,f16,within,False,15.0,planes,"[1482, 1511]",_01_Airliner_2jetEngines,V3,,,,,,,,,,,,,,,,,,,,,,,,,,,,,,,,,,,,,,
697,6345f5ba9cb434415f3c217a,1808,"['../stimuli/objectome/1531.jpeg', '../stimuli/objectome/1283.jpeg', '../stimuli/objectome/1286.jpeg']",,filler,116,294469,0.0-113.0,61010cf76dbeae43033e1729,633e47989d9c0ed6dfbfb57b,6345f4638ad0a8b2bda1aec9,,0mr3yahvscry2m1qthcd,"10/11/2022, 5:01:14 PM",Chrome,task_exp2,chris,pilot_prolific_exp2.2,1.0,chairs,_031,True,1.0,arrowleft,chairs,1531.0,_031,within,False,16.0,chairs,"[1283, 1286]",_004,V3,,,,,,,,,,,,,,,,,,,,,,,,,,,,,,,,,,,,,,
698,6345f5be9cb434415f3c217b,2527,"['../stimuli/objectome/914.jpeg', '../stimuli/objectome/930.jpeg', '../stimuli/objectome/899.jpeg']",,filler,118,297863,0.0-115.0,61010cf76dbeae43033e1729,633e47989d9c0ed6dfbfb57b,6345f4638ad0a8b2bda1aec9,,0mr3yahvscry2m1qthcd,"10/11/2022, 5:01:18 PM",Chrome,task_exp2,chris,pilot_prolific_exp2.2,2.0,animals,GORILLA,True,2.0,arrowright,animals,930.0,GORILLA,within,False,17.0,animals,"[914, 899]",ELEPHANT_M,V3,,,,,,,,,,,,,,,,,,,,,,,,,,,,,,,,,,,,,,
699,6345f5c29cb434415f3c217c,3381,"['../stimuli/objectome/2400.jpeg', '../stimuli/objectome/2856.jpeg', '../stimuli/objectome/2416.jpeg']",,filler,120,302116,0.0-117.0,61010cf76dbeae43033e1729,633e47989d9c0ed6dfbfb57b,6345f4638ad0a8b2bda1aec9,,0mr3yahvscry2m1qthcd,"10/11/2022, 5:01:22 PM",Chrome,task_exp2,chris,pilot_prolific_exp2.2,1.0,planes,f16,False,2.0,arrowleft,planes,2856.0,mig29,within,False,18.0,planes,"[2400, 2416]",f16,V3,,,,,,,,,,,,,,,,,,,,,,,,,,,,,,,,,,,,,,
700,6345f5c69cb434415f3c217d,3040,"['../stimuli/objectome/1607.jpeg', '../stimuli/objectome/1627.jpeg', '../stimuli/objectome/2849.jpeg']",,filler,122,305927,0.0-119.0,61010cf76dbeae43033e1729,633e47989d9c0ed6dfbfb57b,6345f4638ad0a8b2bda1aec9,,0mr3yahvscry2m1qthcd,"10/11/2022, 5:01:26 PM",Chrome,task_exp2,chris,pilot_prolific_exp2.2,2.0,planes,_05_future,False,3.0,arrowright,planes,2849.0,mig29,within,False,19.0,planes,"[1607, 1627]",_05_future,V3,,,,,,,,,,,,,,,,,,,,,,,,,,,,,,,,,,,,,,
701,6345f5c99cb434415f3c217e,2123,"['../stimuli/objectome/1590.jpeg', '../stimuli/objectome/1589.jpeg', '../stimuli/objectome/1244.jpeg']",,filler,124,308934,0.0-121.0,61010cf76dbeae43033e1729,633e47989d9c0ed6dfbfb57b,6345f4638ad0a8b2bda1aec9,,0mr3yahvscry2m1qthcd,"10/11/2022, 5:01:29 PM",Chrome,task_exp2,chris,pilot_prolific_exp2.2,3.0,chairs,_001,True,3.0,arrowdown,chairs,1244.0,_001,within,False,20.0,chairs,"[1590, 1589]",_033,V3,,,,,,,,,,,,,,,,,,,,,,,,,,,,,,,,,,,,,,
702,6345f5cf9cb434415f3c217f,5179,"<p style='font-size: 150%'><b>You have finished Part 2!</b></p><p>Nice job! On this section, you averaged <b>90% accuracy</b>.</p><p>You're on track to earn a good bonus. Keep up the good work!</p><p>Click 'Next' to continue to Part 3.</p>",0,bonus_update,126,315272,0.0-123.0,61010cf76dbeae43033e1729,633e47989d9c0ed6dfbfb57b,6345f4638ad0a8b2bda1aec9,filler,0mr3yahvscry2m1qthcd,"10/11/2022, 5:01:35 PM",Chrome,task_exp2,chris,pilot_prolific_exp2.2,,,,,,,,,,,,,,,,,,,,,,,,,,,,,,,,,,,,,,,,,,,,,,,,,,,,,,
703,6345f5de9cb434415f3c2180,8065,<p><img src='../stimuli/version1_color/id028_25L_D.png' ></img><img src='../stimuli/version1_color/id022_50L_D.png' ></img></p>,25,retrieval_practice,128,448502,0.0-125.0-0.0,60b086e07a56549b8b182f8a,633e47989d9c0ed6dfbfb57b,6345f36c759c3428cbeb2db2,,av7e29z4b64zkazn9kml,"10/11/2022, 4:01:50 PM",Chrome,task_exp2,chris,pilot_prolific_exp2.2,,,,True,1.0,,,,,,,1.0,,,,,"{'muct_id': '26', 'lighting': 'q', 'race_guess': 'b', 'gender_guess': 'w', 'quality': '3', 'quality_eyes': '3', 'quality_mouth': '3', 'quality_ears': '3', 'quality_hair': '3', 'quality_neck': '3', 'facial_hair': '0.0', 'notes': 'earrings', 'race_common': 'black', 'gender_common': 'woman'}","{'muct_id': '38', 'lighting': 'q', 'race_guess': 'b', 'gender_guess': 'm', 'quality': '3', 'quality_eyes': '3', 'quality_mouth': '3', 'quality_ears': '3', 'quality_hair': '3', 'quality_neck': '3', 'facial_hair': '2.0', 'notes': None, 'race_common': 'black', 'gender_common': 'man'}",woman,022,1.0,0.8820177316665649,black,50L,D,man,028,0.0,0.8872789144515991,13.0,50L,D,black,25L,D,50.0,"['../stimuli/version1_color/id028_25L_D.png', '../stimuli/version1_color/id022_50L_D.png']",25R,25.0,,,,,,,,,,,,,,,
704,6345f5ea9cb434415f3c2181,,<p><img src='../stimuli/version1_color/id126_00C_D.png' ></img><img src='../stimuli/version1_color/id127_50L_U.png' ></img></p>,,retrieval_practice,130,459879,0.0-126.0-0.0,60b086e07a56549b8b182f8a,633e47989d9c0ed6dfbfb57b,6345f36c759c3428cbeb2db2,,av7e29z4b64zkazn9kml,"10/11/2022, 4:02:02 PM",Chrome,task_exp2,chris,pilot_prolific_exp2.2,,,,True,1.0,,,,,,,2.0,,,,,"{'muct_id': '435', 'lighting': 'x', 'race_guess': 'b', 'gender_guess': 'w', 'quality': '3', 'quality_eyes': '3', 'quality_mouth': '3', 'quality_ears': '3', 'quality_hair': '3', 'quality_neck': '3', 'facial_hair': '0.0', 'notes': 'bandana', 'race_common': 'black', 'gender_common': 'woman'}","{'muct_id': '434', 'lighting': 'w', 'race_guess': 'b', 'gender_guess': 'w', 'quality': '3', 'quality_eyes': '3', 'quality_mouth': '3', 'quality_ears': '3', 'quality_hair': '3', 'quality_neck': '3', 'facial_hair': '0.0', 'notes': 'earrings', 'race_common': 'black', 'gender_common': 'woman'}",woman,127,1.0,0.8507569432258606,black,50L,U,woman,126,0.0,0.9365697503089905,20.0,00C,D,black,00C,D,50.0,"['../stimuli/version1_color/id126_00C_D.png', '../stimuli/version1_color/id127_50L_U.png']",00C,0.0,,,,,,,,,,,,,,,
705,6345f5ef9cb434415f3c2182,4007,<p><img src='../stimuli/version1_color/id151_50L_D.png' ></img><img src='../stimuli/version1_color/id002_00C_C.png' ></img></p>,27,retrieval_practice,132,464996,0.0-127.0-0.0,60b086e07a56549b8b182f8a,633e47989d9c0ed6dfbfb57b,6345f36c759c3428cbeb2db2,,av7e29z4b64zkazn9kml,"10/11/2022, 4:02:07 PM",Chrome,task_exp2,chris,pilot_prolific_exp2.2,,,,True,1.0,,,,,,,3.0,,,,,"{'muct_id': '2', 'lighting': 'r', 'race_guess': 'w', 'gender_guess': 'm', 'quality': '3', 'quality_eyes': '3', 'quality_mouth': '3', 'quality_ears': '3', 'quality_hair': '3', 'quality_neck': '3', 'facial_hair': '2.0', 'notes': 'eyes', 'race_common': 'white', 'gender_common': 'man'}","{'muct_id': '444', 'lighting': 'w', 'race_guess': 'w', 'gender_guess': 'w', 'quality': '3', 'quality_eyes': '3', 'quality_mouth': '3', 'quality_ears': '3', 'quality_hair': '3', 'quality_neck': '3', 'facial_hair': '0.0', 'notes': None, 'race_common': 'white', 'gender_common': 'woman'}",man,002,1.0,0.8953012824058533,white,00C,C,woman,151,0.0,0.8786812424659729,10.0,50L,D,white,50L,D,50.0,"['../stimuli/version1_color/id151_50L_D.png', '../stimuli/version1_color/id002_00C_C.png']",00C,0.0,,,,,,,,,,,,,,,
706,6345f5f99cb434415f3c2183,3356,<p><img src='../stimuli/version1_color/id064_50R_D.png' ></img><img src='../stimuli/version1_color/id140_00C_C.png' ></img></p>,71,retrieval,135,475001,0.0-129.0,60b086e07a56549b8b182f8a,633e47989d9c0ed6dfbfb57b,6345f36c759c3428cbeb2db2,,av7e29z4b64zkazn9kml,"10/11/2022, 4:02:17 PM",Chrome,task_exp2,chris,pilot_prolific_exp2.2,,,,True,2.0,,,,,,,1.0,,,,,"{'muct_id': '204', 'lighting': 't', 'race_guess': 'b', 'gender_guess': 'm', 'quality': '3', 'quality_eyes': '3', 'quality_mouth': '3', 'quality_ears': '3', 'quality_hair': '3', 'quality_neck': '3', 'facial_hair': '1.0', 'notes': None, 'race_common': 'black', 'gender_common': 'man'}","{'muct_id': '624', 'lighting': 'y', 'race_guess': 'b', 'gender_guess': 'w', 'quality': '3', 'quality_eyes': '3', 'quality_mouth': '3', 'quality_ears': '3', 'quality_hair': '3', 'quality_neck': '3', 'facial_hair': '0.0', 'notes': 'headband, earring', 'race_common': 'black', 'gender_common': 'woman'}",man,064,0.0,0.8585208654403687,black,50R,D,woman,140,1.0,0.9113604426383972,21.0,00C,C,black,00C,C,50.0,"['../stimuli/version1_color/id064_50R_D.png', '../stimuli/version1_color/id140_00C_C.png']",00C,0.0,,,,,,,,,,,,,,,
707,6345f5ff9cb434415f3c2184,4821,<p><img src='../stimuli/version1_color/id097_00C_U.png' ></img><img src='../stimuli/version1_color/id058_25R_D.png' ></img></p>,65,retrieval,137,481049,0.0-131.0,60b086e07a56549b8b182f8a,633e47989d9c0ed6dfbfb57b,6345f36c759c3428cbeb2db2,,av7e29z4b64zkazn9kml,"10/11/2022, 4:02:23 PM",Chrome,task_exp2,chris,pilot_prolific_exp2.2,,,,True,2.0,,,,,,,2.0,,,,,"{'muct_id': '269', 'lighting': 'u', 'race_guess': 'b', 'gender_guess': 'm', 'quality': '3', 'quality_eyes': '3', 'quality_mouth': '3', 'quality_ears': '3', 'quality_hair': '3', 'quality_neck': '3', 'facial_hair': '0.0', 'notes': None, 'race_common': 'black', 'gender_common': 'man'}","{'muct_id': '84', 'lighting': 'q', 'race_guess': 'b', 'gender_guess': 'm', 'quality': '2', 'quality_eyes': '2', 'quality_mouth': '3', 'quality_ears': '3', 'quality_hair': '3', 'quality_neck': '3', 'facial_hair': '3.0', 'notes': 'beard', 'race_common': 'black', 'gender_common': 'man'}",man,097,0.0,0.914058268070221,black,00C,U,man,058,1.0,0.8789911270141602,17.0,00C,D,black,25R,D,50.0,"['../stimuli/version1_color/id097_00C_U.png', '../stimuli/version1_color/id058_25R_D.png']",25R,25.0,,,,,,,,,,,,,,,
708,6345f6059cb434415f3c2185,5677,<p><img src='../stimuli/version1_color/id084_25L_C.png' ></img><img src='../stimuli/version1_color/id031_00C_U.png' ></img></p>,25,retrieval,139,487606,0.0-133.0,60b086e07a56549b8b182f8a,633e47989d9c0ed6dfbfb57b,6345f36c759c3428cbeb2db2,,av7e29z4b64zkazn9kml,"10/11/2022, 4:02:29 PM",Chrome,task_exp2,chris,pilot_prolific_exp2.2,,,,True,1.0,,,,,,,3.0,,,,,"{'muct_id': '42', 'lighting': 'q', 'race_guess': 'u', 'gender_guess': 'w', 'quality': '2', 'quality_eyes': '3', 'quality_mouth': '3', 'quality_ears': '2', 'quality_hair': '3', 'quality_neck': '3', 'facial_hair': '0.0', 'notes': 'mouth', 'race_common': 'white', 'gender_common': 'woman'}","{'muct_id': '248', 'lighting': 'u', 'race_guess': 'w', 'gender_guess': 'w', 'quality': '3', 'quality_eyes': '3', 'quality_mouth': '3', 'quality_ears': '3', 'quality_hair': '3', 'quality_neck': '3', 'facial_hair': '0.0', 'notes': None, 'race_common': 'white', 'gender_common': 'woman'}",woman,031,1.0,0.8994108438491821,white,00C,U,woman,084,0.0,0.9199551343917847,7.0,50L,C,white,25L,C,50.0,"['../stimuli/version1_color/id084_25L_C.png', '../stimuli/version1_color/id031_00C_U.png']",25R,25.0,,,,,,,,,,,,,,,
709,6345f60d9cb434415f3c2186,6661,<p><img src='../stimuli/version1_color/id115_50R_C.png' ></img><img src='../stimuli/version1_color/id123_25R_C.png' ></img></p>,66,retrieval,141,495144,0.0-135.0,60b086e07a56549b8b182f8a,633e47989d9c0ed6dfbfb57b,6345f36c759c3428cbeb2db2,,av7e29z4b64zkazn9kml,"10/11/2022, 4:02:37 PM",Chrome,task_exp2,chris,pilot_prolific_exp2.2,,,,True,2.0,,,,,,,4.0,,,,,"{'muct_id': '412', 'lighting': 'x', 'race_guess': 'w', 'gender_guess': 'm', 'quality': '3', 'quality_eyes': '3', 'quality_mouth': '3', 'quality_ears': '3', 'quality_hair': '3', 'quality_neck': '3', 'facial_hair': '0.0', 'notes': None, 'race_common': 'white', 'gender_common': 'man'}","{'muct_id': '76', 'lighting': 'q', 'race_guess': 'w', 'gender_guess': 'w', 'quality': '2', 'quality_eyes': '2', 'quality_mouth': '3', 'quality_ears': '2', 'quality_hair': '2', 'quality_neck': '3', 'facial_hair': '0.0', 'notes': 'hair', 'race_common': 'white', 'gender_common': 'woman'}",man,115,0.0,0.8767728805541992,white,50R,C,woman,123,1.0,0.8802809119224548,39.0,25R,C,white,25R,C,50.0,"['../stimuli/version1_color/id115_50R_C.png', '../stimuli/version1_color/id123_25R_C.png']",00C,0.0,,,,,,,,,,,,,,,
710,6345f6139cb434415f3c2187,5835,<p><img src='../stimuli/version1_color/id122_50R_U.png' ></img><img src='../stimuli/version1_color/id036_25R_U.png' ></img></p>,76,retrieval,143,501668,0.0-137.0,60b086e07a56549b8b182f8a,633e47989d9c0ed6dfbfb57b,6345f36c759c3428cbeb2db2,,av7e29z4b64zkazn9kml,"10/11/2022, 4:02:43 PM",Chrome,task_exp2,chris,pilot_prolific_exp2.2,,,,True,2.0,,,,,,,5.0,,,,,"{'muct_id': '425', 'lighting': 'x', 'race_guess': 'b', 'gender_guess': 'm', 'quality': '3', 'quality_eyes': '3', 'quality_mouth': '3', 'quality_ears': '3', 'quality_hair': '3', 'quality_neck': '3', 'facial_hair': '2.0', 'notes': None, 'race_common': 'black', 'gender_common': 'man'}","{'muct_id': '47', 'lighting': 'q', 'race_guess': 'b', 'gender_guess': 'u', 'quality': '3', 'quality_eyes': '3', 'quality_mouth': '3', 'quality_ears': '3', 'quality_hair': '3', 'quality_neck': '3', 'facial_hair': '0.0', 'notes': None, 'race_common': 'black', 'gender_common': 'man'}",man,122,0.0,0.8664988279342651,black,50R,U,man,036,1.0,0.8774027228355408,5.0,25R,U,black,25R,U,50.0,"['../stimuli/version1_color/id122_50R_U.png', '../stimuli/version1_color/id036_25R_U.png']",00C,0.0,,,,,,,,,,,,,,,
711,6345f6199cb434415f3c2188,5181,<p><img src='../stimuli/version1_color/id041_25R_D.png' ></img><img src='../stimuli/version1_color/id088_25R_U.png' ></img></p>,62,retrieval,145,507616,0.0-139.0,60b086e07a56549b8b182f8a,633e47989d9c0ed6dfbfb57b,6345f36c759c3428cbeb2db2,,av7e29z4b64zkazn9kml,"10/11/2022, 4:02:49 PM",Chrome,task_exp2,chris,pilot_prolific_exp2.2,,,,True,2.0,,,,,,,6.0,,,,,"{'muct_id': '56', 'lighting': 'q', 'race_guess': 'w', 'gender_guess': 'm', 'quality': '3', 'quality_eyes': '3', 'quality_mouth': '3', 'quality_ears': '3', 'quality_hair': '3', 'quality_neck': '3', 'facial_hair': '0.0', 'notes': None, 'race_common': 'white', 'gender_common': 'man'}","{'muct_id': '252', 'lighting': 't', 'race_guess': 'w', 'gender_guess': 'w', 'quality': '3', 'quality_eyes': '3', 'quality_mouth': '3', 'quality_ears': '3', 'quality_hair': '3', 'quality_neck': '3', 'facial_hair': '0.0', 'notes': 'hair', 'race_common': 'white', 'gender_common': 'woman'}",man,041,0.0,0.8927744626998901,white,25R,D,woman,088,1.0,0.921034574508667,19.0,25R,U,white,25R,U,50.0,"['../stimuli/version1_color/id041_25R_D.png', '../stimuli/version1_color/id088_25R_U.png']",00C,0.0,,,,,,,,,,,,,,,
712,6345f61e9cb434415f3c2189,5341,<p><img src='../stimuli/version1_color/id016_25R_U.png' ></img><img src='../stimuli/version1_color/id086_25L_C.png' ></img></p>,63,retrieval_practice,128,394220,0.0-125.0-0.0,61010cf76dbeae43033e1729,633e47989d9c0ed6dfbfb57b,6345f4638ad0a8b2bda1aec9,,0mr3yahvscry2m1qthcd,"10/11/2022, 5:02:54 PM",Chrome,task_exp2,chris,pilot_prolific_exp2.2,,,,True,2.0,,,,,,,1.0,,,,,"{'muct_id': '18', 'lighting': 'q', 'race_guess': 'b', 'gender_guess': 'w', 'quality': '3', 'quality_eyes': '3', 'quality_mouth': '3', 'quality_ears': '3', 'quality_hair': '3', 'quality_neck': '3', 'facial_hair': '0.0', 'notes': 'earrings', 'race_common': 'black', 'gender_common': 'woman'}","{'muct_id': '250', 'lighting': 't', 'race_guess': 'b', 'gender_guess': 'm', 'quality': '3', 'quality_eyes': '3', 'quality_mouth': '3', 'quality_ears': '3', 'quality_hair': '3', 'quality_neck': '3', 'facial_hair': '1.0', 'notes': None, 'race_common': 'black', 'gender_common': 'man'}",woman,016,0.0,0.8389569520950317,black,25R,U,man,086,1.0,0.8629913926124573,6.0,00C,C,black,25L,C,50.0,"['../stimuli/version1_color/id016_25R_U.png', '../stimuli/version1_color/id086_25L_C.png']",25L,-25.0,,,,,,,,,,,,,,,
713,6345f6209cb434415f3c218a,6065,<p><img src='../stimuli/version1_color/id153_00C_C.png' ></img><img src='../stimuli/version1_color/id074_00C_D.png' ></img></p>,63,retrieval,147,514458,0.0-141.0,60b086e07a56549b8b182f8a,633e47989d9c0ed6dfbfb57b,6345f36c759c3428cbeb2db2,,av7e29z4b64zkazn9kml,"10/11/2022, 4:02:56 PM",Chrome,task_exp2,chris,pilot_prolific_exp2.2,,,,True,2.0,,,,,,,7.0,,,,,"{'muct_id': '437', 'lighting': 'x', 'race_guess': 'w', 'gender_guess': 'w', 'quality': '3', 'quality_eyes': '3', 'quality_mouth': '3', 'quality_ears': '3', 'quality_hair': '3', 'quality_neck': '3', 'facial_hair': '0.0', 'notes': 'hair', 'race_common': 'white', 'gender_common': 'woman'}","{'muct_id': '229', 'lighting': 't', 'race_guess': 'w', 'gender_guess': 'm', 'quality': '3', 'quality_eyes': '3', 'quality_mouth': '3', 'quality_ears': '3', 'quality_hair': '3', 'quality_neck': '3', 'facial_hair': '2.0', 'notes': 'mouth', 'race_common': 'white', 'gender_common': 'man'}",woman,153,0.0,0.9193280935287476,white,00C,C,man,074,1.0,0.9546219706535339,24.0,00C,D,white,00C,D,50.0,"['../stimuli/version1_color/id153_00C_C.png', '../stimuli/version1_color/id074_00C_D.png']",00C,0.0,,,,,,,,,,,,,,,
714,6345f6239cb434415f3c218b,4058,<p><img src='../stimuli/version1_color/id109_50L_D.png' ></img><img src='../stimuli/version1_color/id152_25R_U.png' ></img></p>,0,retrieval_practice,130,399370,0.0-126.0-0.0,61010cf76dbeae43033e1729,633e47989d9c0ed6dfbfb57b,6345f4638ad0a8b2bda1aec9,,0mr3yahvscry2m1qthcd,"10/11/2022, 5:02:59 PM",Chrome,task_exp2,chris,pilot_prolific_exp2.2,,,,True,1.0,,,,,,,2.0,,,,,"{'muct_id': '446', 'lighting': 'w', 'race_guess': 'w', 'gender_guess': 'w', 'quality': '3', 'quality_eyes': '3', 'quality_mouth': '3', 'quality_ears': '3', 'quality_hair': '3', 'quality_neck': '3', 'facial_hair': '0.0', 'notes': None, 'race_common': 'white', 'gender_common': 'woman'}","{'muct_id': '401', 'lighting': 'w', 'race_guess': 'w', 'gender_guess': 'w', 'quality': '3', 'quality_eyes': '3', 'quality_mouth': '3', 'quality_ears': '3', 'quality_hair': '3', 'quality_neck': '3', 'facial_hair': '0.0', 'notes': 'mouth', 'race_common': 'white', 'gender_common': 'woman'}",woman,152,1.0,0.8889960050582886,white,25R,U,woman,109,0.0,0.8726745843887329,35.0,25L,D,white,50L,D,50.0,"['../stimuli/version1_color/id109_50L_D.png', '../stimuli/version1_color/id152_25R_U.png']",25L,-25.0,,,,,,,,,,,,,,,
715,6345f6279cb434415f3c218c,6222,<p><img src='../stimuli/version1_color/id077_25R_U.png' ></img><img src='../stimuli/version1_color/id019_50R_D.png' ></img></p>,33,retrieval,149,521537,0.0-143.0,60b086e07a56549b8b182f8a,633e47989d9c0ed6dfbfb57b,6345f36c759c3428cbeb2db2,,av7e29z4b64zkazn9kml,"10/11/2022, 4:03:03 PM",Chrome,task_exp2,chris,pilot_prolific_exp2.2,,,,True,1.0,,,,,,,8.0,,,,,"{'muct_id': '23', 'lighting': 'q', 'race_guess': 'b', 'gender_guess': 'u', 'quality': '3', 'quality_eyes': '3', 'quality_mouth': '3', 'quality_ears': '3', 'quality_hair': '3', 'quality_neck': '3', 'facial_hair': '0.0', 'notes': None, 'race_common': 'black', 'gender_common': 'woman'}","{'muct_id': '235', 'lighting': 'u', 'race_guess': 'b', 'gender_guess': 'w', 'quality': '3', 'quality_eyes': '3', 'quality_mouth': '3', 'quality_ears': '3', 'quality_hair': '3', 'quality_neck': '3', 'facial_hair': '0.0', 'notes': 'earrings', 'race_common': 'black', 'gender_common': 'woman'}",woman,019,1.0,0.9158408641815186,black,50R,D,woman,077,0.0,0.8703293204307556,26.0,50R,U,black,25R,U,50.0,"['../stimuli/version1_color/id077_25R_U.png', '../stimuli/version1_color/id019_50R_D.png']",25L,-25.0,,,,,,,,,,,,,,,
716,6345f6299cb434415f3c218d,4817,<p><img src='../stimuli/version1_color/id139_50L_U.png' ></img><img src='../stimuli/version1_color/id030_50R_D.png' ></img></p>,69,retrieval_practice,132,405120,0.0-127.0-0.0,61010cf76dbeae43033e1729,633e47989d9c0ed6dfbfb57b,6345f4638ad0a8b2bda1aec9,,0mr3yahvscry2m1qthcd,"10/11/2022, 5:03:05 PM",Chrome,task_exp2,chris,pilot_prolific_exp2.2,,,,True,2.0,,,,,,,3.0,,,,,"{'muct_id': '623', 'lighting': 'y', 'race_guess': 'b', 'gender_guess': 'm', 'quality': '3', 'quality_eyes': '3', 'quality_mouth': '3', 'quality_ears': '3', 'quality_hair': '3', 'quality_neck': '3', 'facial_hair': '1.0', 'notes': 'mouth', 'race_common': 'black', 'gender_common': 'man'}","{'muct_id': '41', 'lighting': 'r', 'race_guess': 'b', 'gender_guess': 'm', 'quality': '3', 'quality_eyes': '3', 'quality_mouth': '3', 'quality_ears': '3', 'quality_hair': '3', 'quality_neck': '3', 'facial_hair': '0.0', 'notes': None, 'race_common': 'black', 'gender_common': 'man'}",man,139,0.0,0.9133608937263489,black,50L,U,man,030,1.0,0.8322815895080566,24.0,25R,D,black,50R,D,50.0,"['../stimuli/version1_color/id139_50L_U.png', '../stimuli/version1_color/id030_50R_D.png']",25R,25.0,,,,,,,,,,,,,,,
717,6345f62c9cb434415f3c218e,3681,<p><img src='../stimuli/version1_color/id136_25L_C.png' ></img><img src='../stimuli/version1_color/id144_50L_U.png' ></img></p>,65,retrieval,151,526017,0.0-145.0,60b086e07a56549b8b182f8a,633e47989d9c0ed6dfbfb57b,6345f36c759c3428cbeb2db2,,av7e29z4b64zkazn9kml,"10/11/2022, 4:03:08 PM",Chrome,task_exp2,chris,pilot_prolific_exp2.2,,,,True,2.0,,,,,,,9.0,,,,,"{'muct_id': '616', 'lighting': 'y', 'race_guess': 'b', 'gender_guess': 'w', 'quality': '3', 'quality_eyes': '3', 'quality_mouth': '3', 'quality_ears': '3', 'quality_hair': '3', 'quality_neck': '3', 'facial_hair': '0.0', 'notes': 'earrings', 'race_common': 'black', 'gender_common': 'woman'}","{'muct_id': '214', 'lighting': 'u', 'race_guess': 'b', 'gender_guess': 'w', 'quality': '2', 'quality_eyes': '2', 'quality_mouth': '3', 'quality_ears': '3', 'quality_hair': '3', 'quality_neck': '3', 'facial_hair': '0.0', 'notes': None, 'race_common': 'black', 'gender_common': 'woman'}",woman,136,0.0,0.8720163702964783,black,25L,C,woman,144,1.0,0.9130327701568604,25.0,50L,U,black,50L,U,50.0,"['../stimuli/version1_color/id136_25L_C.png', '../stimuli/version1_color/id144_50L_U.png']",00C,0.0,,,,,,,,,,,,,,,
718,6345f6319cb434415f3c218f,4564,<p><img src='../stimuli/version1_color/id033_25R_D.png' ></img><img src='../stimuli/version1_color/id068_25L_D.png' ></img></p>,63,retrieval,135,413086,0.0-129.0,61010cf76dbeae43033e1729,633e47989d9c0ed6dfbfb57b,6345f4638ad0a8b2bda1aec9,,0mr3yahvscry2m1qthcd,"10/11/2022, 5:03:13 PM",Chrome,task_exp2,chris,pilot_prolific_exp2.2,,,,True,2.0,,,,,,,1.0,,,,,"{'muct_id': '44', 'lighting': 'q', 'race_guess': 'u', 'gender_guess': 'm', 'quality': '3', 'quality_eyes': '3', 'quality_mouth': '3', 'quality_ears': '3', 'quality_hair': '3', 'quality_neck': '3', 'facial_hair': '2.0', 'notes': None, 'race_common': 'black', 'gender_common': 'man'}","{'muct_id': '213', 'lighting': 'u', 'race_guess': 'b', 'gender_guess': 'w', 'quality': '3', 'quality_eyes': '3', 'quality_mouth': '3', 'quality_ears': '3', 'quality_hair': '3', 'quality_neck': '3', 'facial_hair': '0.0', 'notes': None, 'race_common': 'black', 'gender_common': 'woman'}",man,033,0.0,0.8930872678756714,black,25R,D,woman,068,1.0,0.8961565494537354,22.0,50L,D,black,25L,D,50.0,"['../stimuli/version1_color/id033_25R_D.png', '../stimuli/version1_color/id068_25L_D.png']",25R,25.0,,,,,,,,,,,,,,,
719,6345f6329cb434415f3c2190,5216,<p><img src='../stimuli/version1_color/id093_25L_D.png' ></img><img src='../stimuli/version1_color/id034_00C_D.png' ></img></p>,25,retrieval,153,531955,0.0-147.0,60b086e07a56549b8b182f8a,633e47989d9c0ed6dfbfb57b,6345f36c759c3428cbeb2db2,,av7e29z4b64zkazn9kml,"10/11/2022, 4:03:14 PM",Chrome,task_exp2,chris,pilot_prolific_exp2.2,,,,True,1.0,,,,,,,10.0,,,,,"{'muct_id': '45', 'lighting': 'q', 'race_guess': 'w', 'gender_guess': 'm', 'quality': '3', 'quality_eyes': '3', 'quality_mouth': '3', 'quality_ears': '3', 'quality_hair': '3', 'quality_neck': '3', 'facial_hair': '0.0', 'notes': None, 'race_common': 'white', 'gender_common': 'man'}","{'muct_id': '263', 'lighting': 'u', 'race_guess': 'w', 'gender_guess': 'm', 'quality': '3', 'quality_eyes': '3', 'quality_mouth': '3', 'quality_ears': '3', 'quality_hair': '3', 'quality_neck': '3', 'facial_hair': '2.0', 'notes': None, 'race_common': 'white', 'gender_common': 'man'}",man,034,1.0,0.9262178540229797,white,00C,D,man,093,0.0,0.8573171496391296,12.0,25L,D,white,25L,D,50.0,"['../stimuli/version1_color/id093_25L_D.png', '../stimuli/version1_color/id034_00C_D.png']",00C,0.0,,,,,,,,,,,,,,,
720,6345f6389cb434415f3c2191,6121,<p><img src='../stimuli/version1_color/id080_50R_C.png' ></img><img src='../stimuli/version1_color/id092_25L_U.png' ></img></p>,39,retrieval,137,420086,0.0-131.0,61010cf76dbeae43033e1729,633e47989d9c0ed6dfbfb57b,6345f4638ad0a8b2bda1aec9,,0mr3yahvscry2m1qthcd,"10/11/2022, 5:03:20 PM",Chrome,task_exp2,chris,pilot_prolific_exp2.2,,,,True,1.0,,,,,,,2.0,,,,,"{'muct_id': '261', 'lighting': 'v', 'race_guess': 'w', 'gender_guess': 'm', 'quality': '2', 'quality_eyes': '2', 'quality_mouth': '3', 'quality_ears': '3', 'quality_hair': '3', 'quality_neck': '3', 'facial_hair': '0.0', 'notes': None, 'race_common': 'white', 'gender_common': 'man'}","{'muct_id': '240', 'lighting': 'u', 'race_guess': 'w', 'gender_guess': 'm', 'quality': '3', 'quality_eyes': '3', 'quality_mouth': '3', 'quality_ears': '3', 'quality_hair': '3', 'quality_neck': '3', 'facial_hair': '0.0', 'notes': 'mouth', 'race_common': 'white', 'gender_common': 'man'}",man,092,1.0,0.8649855852127075,white,25L,U,man,080,0.0,0.8827466368675232,38.0,50R,C,white,50R,C,50.0,"['../stimuli/version1_color/id080_50R_C.png', '../stimuli/version1_color/id092_25L_U.png']",00C,0.0,,,,,,,,,,,,,,,
721,6345f63c9cb434415f3c2192,3424,<p><img src='../stimuli/version1_color/id073_00C_U.png' ></img><img src='../stimuli/version1_color/id031_50R_D.png' ></img></p>,0,retrieval,139,424186,0.0-133.0,61010cf76dbeae43033e1729,633e47989d9c0ed6dfbfb57b,6345f4638ad0a8b2bda1aec9,,0mr3yahvscry2m1qthcd,"10/11/2022, 5:03:24 PM",Chrome,task_exp2,chris,pilot_prolific_exp2.2,,,,True,1.0,,,,,,,3.0,,,,,"{'muct_id': '42', 'lighting': 'q', 'race_guess': 'u', 'gender_guess': 'w', 'quality': '2', 'quality_eyes': '3', 'quality_mouth': '3', 'quality_ears': '2', 'quality_hair': '3', 'quality_neck': '3', 'facial_hair': '0.0', 'notes': 'mouth', 'race_common': 'white', 'gender_common': 'woman'}","{'muct_id': '225', 'lighting': 'u', 'race_guess': 'w', 'gender_guess': 'm', 'quality': '3', 'quality_eyes': '3', 'quality_mouth': '3', 'quality_ears': '3', 'quality_hair': '3', 'quality_neck': '3', 'facial_hair': '2.0', 'notes': None, 'race_common': 'white', 'gender_common': 'man'}",woman,031,1.0,0.8476876616477966,white,50R,D,man,073,0.0,0.9065766334533691,21.0,00C,U,white,00C,U,50.0,"['../stimuli/version1_color/id073_00C_U.png', '../stimuli/version1_color/id031_50R_D.png']",00C,0.0,,,,,,,,,,,,,,,
722,6345f6419cb434415f3c2193,4160,<p><img src='../stimuli/version1_color/id052_25R_C.png' ></img><img src='../stimuli/version1_color/id042_25R_C.png' ></img></p>,60,retrieval,141,429103,0.0-135.0,61010cf76dbeae43033e1729,633e47989d9c0ed6dfbfb57b,6345f4638ad0a8b2bda1aec9,,0mr3yahvscry2m1qthcd,"10/11/2022, 5:03:29 PM",Chrome,task_exp2,chris,pilot_prolific_exp2.2,,,,True,2.0,,,,,,,4.0,,,,,"{'muct_id': '75', 'lighting': 'q', 'race_guess': 'w', 'gender_guess': 'm', 'quality': '3', 'quality_eyes': '3', 'quality_mouth': '3', 'quality_ears': '3', 'quality_hair': '3', 'quality_neck': '3', 'facial_hair': '4.0', 'notes': 'beard', 'race_common': 'white', 'gender_common': 'man'}","{'muct_id': '57', 'lighting': 'r', 'race_guess': 'b', 'gender_guess': 'w', 'quality': '3', 'quality_eyes': '3', 'quality_mouth': '3', 'quality_ears': '3', 'quality_hair': '3', 'quality_neck': '3', 'facial_hair': '0.0', 'notes': 'earrings', 'race_common': 'white', 'gender_common': 'woman'}",man,052,0.0,0.8873822689056396,white,25R,C,woman,042,1.0,0.8816291689872742,37.0,00C,C,white,25R,C,50.0,"['../stimuli/version1_color/id052_25R_C.png', '../stimuli/version1_color/id042_25R_C.png']",25R,25.0,,,,,,,,,,,,,,,
723,6345f6469cb434415f3c2194,4292,<p><img src='../stimuli/version1_color/id057_25L_U.png' ></img><img src='../stimuli/version1_color/id081_00C_U.png' ></img></p>,85,retrieval,143,434036,0.0-137.0,61010cf76dbeae43033e1729,633e47989d9c0ed6dfbfb57b,6345f4638ad0a8b2bda1aec9,,0mr3yahvscry2m1qthcd,"10/11/2022, 5:03:34 PM",Chrome,task_exp2,chris,pilot_prolific_exp2.2,,,,True,2.0,,,,,,,5.0,,,,,"{'muct_id': '83', 'lighting': 'r', 'race_guess': 'b', 'gender_guess': 'm', 'quality': '3', 'quality_eyes': '3', 'quality_mouth': '3', 'quality_ears': '3', 'quality_hair': '3', 'quality_neck': '3', 'facial_hair': '3.0', 'notes': None, 'race_common': 'black', 'gender_common': 'man'}","{'muct_id': '241', 'lighting': 't', 'race_guess': 'u', 'gender_guess': 'm', 'quality': '3', 'quality_eyes': '3', 'quality_mouth': '3', 'quality_ears': '3', 'quality_hair': '3', 'quality_neck': '3', 'facial_hair': '1.0', 'notes': 'mouth', 'race_common': 'black', 'gender_common': 'man'}",man,057,0.0,0.8718394637107849,black,25L,U,man,081,1.0,0.8799811005592346,10.0,00C,U,black,00C,U,50.0,"['../stimuli/version1_color/id057_25L_U.png', '../stimuli/version1_color/id081_00C_U.png']",00C,0.0,,,,,,,,,,,,,,,
724,6345f64b9cb434415f3c2195,4838,<p><img src='../stimuli/version1_color/id088_25L_D.png' ></img><img src='../stimuli/version1_color/id003_00C_U.png' ></img></p>,0,retrieval,145,439619,0.0-139.0,61010cf76dbeae43033e1729,633e47989d9c0ed6dfbfb57b,6345f4638ad0a8b2bda1aec9,,0mr3yahvscry2m1qthcd,"10/11/2022, 5:03:39 PM",Chrome,task_exp2,chris,pilot_prolific_exp2.2,,,,False,2.0,,,,,,,6.0,,,,,"{'muct_id': '252', 'lighting': 't', 'race_guess': 'w', 'gender_guess': 'w', 'quality': '3', 'quality_eyes': '3', 'quality_mouth': '3', 'quality_ears': '3', 'quality_hair': '3', 'quality_neck': '3', 'facial_hair': '0.0', 'notes': 'hair', 'race_common': 'white', 'gender_common': 'woman'}","{'muct_id': '3', 'lighting': 's', 'race_guess': 'i', 'gender_guess': 'w', 'quality': '2', 'quality_eyes': '3', 'quality_mouth': '3', 'quality_ears': '3', 'quality_hair': '2', 'quality_neck': '3', 'facial_hair': '0.0', 'notes': 'hair', 'race_common': 'white', 'gender_common': 'woman'}",woman,088,0.0,0.8949655890464783,white,25L,D,woman,003,1.0,0.8111342787742615,14.0,00C,U,white,00C,U,50.0,"['../stimuli/version1_color/id088_25L_D.png', '../stimuli/version1_color/id003_00C_U.png']",00C,0.0,,,,,,,,,,,,,,,
725,6345f6509cb434415f3c2196,3953,<p><img src='../stimuli/version1_color/id114_25R_C.png' ></img><img src='../stimuli/version1_color/id148_00C_D.png' ></img></p>,79,retrieval,147,444302,0.0-141.0,61010cf76dbeae43033e1729,633e47989d9c0ed6dfbfb57b,6345f4638ad0a8b2bda1aec9,,0mr3yahvscry2m1qthcd,"10/11/2022, 5:03:44 PM",Chrome,task_exp2,chris,pilot_prolific_exp2.2,,,,True,2.0,,,,,,,7.0,,,,,"{'muct_id': '410', 'lighting': 'w', 'race_guess': 'w', 'gender_guess': 'w', 'quality': '3', 'quality_eyes': '3', 'quality_mouth': '3', 'quality_ears': '3', 'quality_hair': '3', 'quality_neck': '3', 'facial_hair': '0.0', 'notes': 'makeup mouth', 'race_common': 'white', 'gender_common': 'woman'}","{'muct_id': '415', 'lighting': 'w', 'race_guess': 'w', 'gender_guess': 'w', 'quality': '3', 'quality_eyes': '3', 'quality_mouth': '3', 'quality_ears': '3', 'quality_hair': '3', 'quality_neck': '3', 'facial_hair': '0.0', 'notes': None, 'race_common': 'white', 'gender_common': 'woman'}",woman,114,0.0,0.8699119687080383,white,25R,C,woman,148,1.0,0.9338886141777039,33.0,00C,D,white,00C,D,50.0,"['../stimuli/version1_color/id114_25R_C.png', '../stimuli/version1_color/id148_00C_D.png']",00C,0.0,,,,,,,,,,,,,,,
726,6345f6559cb434415f3c2197,4262,<p><img src='../stimuli/version1_color/id102_00C_D.png' ></img><img src='../stimuli/version1_color/id125_25R_D.png' ></img></p>,8,retrieval,149,449453,0.0-143.0,61010cf76dbeae43033e1729,633e47989d9c0ed6dfbfb57b,6345f4638ad0a8b2bda1aec9,,0mr3yahvscry2m1qthcd,"10/11/2022, 5:03:49 PM",Chrome,task_exp2,chris,pilot_prolific_exp2.2,,,,True,1.0,,,,,,,8.0,,,,,"{'muct_id': '433', 'lighting': 'x', 'race_guess': 'w', 'gender_guess': 'w', 'quality': '3', 'quality_eyes': '3', 'quality_mouth': '3', 'quality_ears': '3', 'quality_hair': '3', 'quality_neck': '3', 'facial_hair': '0.0', 'notes': None, 'race_common': 'white', 'gender_common': 'woman'}","{'muct_id': '283', 'lighting': 't', 'race_guess': 'i', 'gender_guess': 'w', 'quality': '3', 'quality_eyes': '3', 'quality_mouth': '3', 'quality_ears': '3', 'quality_hair': '3', 'quality_neck': '3', 'facial_hair': '0.0', 'notes': 'pottu', 'race_common': 'white', 'gender_common': 'woman'}",woman,125,1.0,0.8782299160957336,white,25R,D,woman,102,0.0,0.8983832001686096,18.0,25L,D,white,00C,D,50.0,"['../stimuli/version1_color/id102_00C_D.png', '../stimuli/version1_color/id125_25R_D.png']",25R,25.0,,,,,,,,,,,,,,,
727,6345f65a9cb434415f3c2198,5114,<p><img src='../stimuli/version1_color/id100_00C_U.png' ></img><img src='../stimuli/version1_color/id143_25R_U.png' ></img></p>,31,retrieval,155,571963,0.0-149.0,60b086e07a56549b8b182f8a,633e47989d9c0ed6dfbfb57b,6345f36c759c3428cbeb2db2,,av7e29z4b64zkazn9kml,"10/11/2022, 4:03:54 PM",Chrome,task_exp2,chris,pilot_prolific_exp2.2,,,,True,1.0,,,,,,,11.0,,,,,"{'muct_id': '90', 'lighting': 'q', 'race_guess': 'u', 'gender_guess': 'm', 'quality': '2', 'quality_eyes': '3', 'quality_mouth': '3', 'quality_ears': '2', 'quality_hair': '3', 'quality_neck': '3', 'facial_hair': '4.0', 'notes': 'beard', 'race_common': 'white', 'gender_common': 'man'}","{'muct_id': '280', 'lighting': 'u', 'race_guess': 'w', 'gender_guess': 'm', 'quality': '3', 'quality_eyes': '3', 'quality_mouth': '3', 'quality_ears': '3', 'quality_hair': '3', 'quality_neck': '3', 'facial_hair': '0.0', 'notes': None, 'race_common': 'white', 'gender_common': 'man'}",man,143,1.0,0.8590173125267029,white,25R,U,man,100,0.0,0.917294442653656,27.0,25R,U,white,00C,U,50.0,"['../stimuli/version1_color/id100_00C_U.png', '../stimuli/version1_color/id143_25R_U.png']",25L,-25.0,,,,,,,,,,,,,,,
728,6345f65a9cb434415f3c2199,3982,<p><img src='../stimuli/version1_color/id126_25R_C.png' ></img><img src='../stimuli/version1_color/id133_00C_D.png' ></img></p>,97,retrieval,151,454418,0.0-145.0,61010cf76dbeae43033e1729,633e47989d9c0ed6dfbfb57b,6345f4638ad0a8b2bda1aec9,,0mr3yahvscry2m1qthcd,"10/11/2022, 5:03:54 PM",Chrome,task_exp2,chris,pilot_prolific_exp2.2,,,,True,2.0,,,,,,,9.0,,,,,"{'muct_id': '434', 'lighting': 'w', 'race_guess': 'b', 'gender_guess': 'w', 'quality': '3', 'quality_eyes': '3', 'quality_mouth': '3', 'quality_ears': '3', 'quality_hair': '3', 'quality_neck': '3', 'facial_hair': '0.0', 'notes': 'earrings', 'race_common': 'black', 'gender_common': 'woman'}","{'muct_id': '601', 'lighting': 'y', 'race_guess': 'b', 'gender_guess': 'w', 'quality': '3', 'quality_eyes': '3', 'quality_mouth': '3', 'quality_ears': '3', 'quality_hair': '3', 'quality_neck': '3', 'facial_hair': '0.0', 'notes': 'mouth', 'race_common': 'black', 'gender_common': 'woman'}",woman,126,0.0,0.8652975559234619,black,25R,C,woman,133,1.0,0.9311972260475159,20.0,25L,D,black,00C,D,50.0,"['../stimuli/version1_color/id126_25R_C.png', '../stimuli/version1_color/id133_00C_D.png']",25R,25.0,,,,,,,,,,,,,,,
729,6345f65f9cb434415f3c219a,4217,<p><img src='../stimuli/version1_color/id144_25R_C.png' ></img><img src='../stimuli/version1_color/id069_25L_C.png' ></img></p>,0,retrieval,153,459485,0.0-147.0,61010cf76dbeae43033e1729,633e47989d9c0ed6dfbfb57b,6345f4638ad0a8b2bda1aec9,,0mr3yahvscry2m1qthcd,"10/11/2022, 5:03:59 PM",Chrome,task_exp2,chris,pilot_prolific_exp2.2,,,,True,1.0,,,,,,,10.0,,,,,"{'muct_id': '218', 'lighting': 't', 'race_guess': 'b', 'gender_guess': 'w', 'quality': '3', 'quality_eyes': '3', 'quality_mouth': '3', 'quality_ears': '3', 'quality_hair': '3', 'quality_neck': '3', 'facial_hair': '0.0', 'notes': None, 'race_common': 'black', 'gender_common': 'woman'}","{'muct_id': '214', 'lighting': 'u', 'race_guess': 'b', 'gender_guess': 'w', 'quality': '2', 'quality_eyes': '2', 'quality_mouth': '3', 'quality_ears': '3', 'quality_hair': '3', 'quality_neck': '3', 'facial_hair': '0.0', 'notes': None, 'race_common': 'black', 'gender_common': 'woman'}",woman,069,1.0,0.8968743085861206,black,25L,C,woman,144,0.0,0.8303192853927612,19.0,25R,C,black,25R,C,50.0,"['../stimuli/version1_color/id144_25R_C.png', '../stimuli/version1_color/id069_25L_C.png']",00C,0.0,,,,,,,,,,,,,,,
730,6345f6609cb434415f3c219b,5771,<p><img src='../stimuli/version1_color/id111_25L_C.png' ></img><img src='../stimuli/version1_color/id142_50L_D.png' ></img></p>,34,retrieval,157,578565,0.0-151.0,60b086e07a56549b8b182f8a,633e47989d9c0ed6dfbfb57b,6345f36c759c3428cbeb2db2,,av7e29z4b64zkazn9kml,"10/11/2022, 4:04:00 PM",Chrome,task_exp2,chris,pilot_prolific_exp2.2,,,,True,1.0,,,,,,,12.0,,,,,"{'muct_id': '87', 'lighting': 'r', 'race_guess': 'b', 'gender_guess': 'w', 'quality': '3', 'quality_eyes': '3', 'quality_mouth': '3', 'quality_ears': '3', 'quality_hair': '3', 'quality_neck': '3', 'facial_hair': '0.0', 'notes': 'earrings hair', 'race_common': 'black', 'gender_common': 'woman'}","{'muct_id': '405', 'lighting': 'w', 'race_guess': 'b', 'gender_guess': 'w', 'quality': '3', 'quality_eyes': '3', 'quality_mouth': '3', 'quality_ears': '3', 'quality_hair': '3', 'quality_neck': '3', 'facial_hair': '0.0', 'notes': 'hair earrings', 'race_common': 'black', 'gender_common': 'woman'}",woman,142,1.0,0.8819727897644043,black,50L,D,woman,111,0.0,0.872858464717865,18.0,25L,C,black,25L,C,50.0,"['../stimuli/version1_color/id111_25L_C.png', '../stimuli/version1_color/id142_50L_D.png']",00C,0.0,,,,,,,,,,,,,,,
731,6345f6649cb434415f3c219c,3775,<p><img src='../stimuli/version1_color/id055_25L_D.png' ></img><img src='../stimuli/version1_color/id020_25L_C.png' ></img></p>,68,retrieval,155,464319,0.0-149.0,61010cf76dbeae43033e1729,633e47989d9c0ed6dfbfb57b,6345f4638ad0a8b2bda1aec9,,0mr3yahvscry2m1qthcd,"10/11/2022, 5:04:04 PM",Chrome,task_exp2,chris,pilot_prolific_exp2.2,,,,True,2.0,,,,,,,11.0,,,,,"{'muct_id': '81', 'lighting': 'q', 'race_guess': 'b', 'gender_guess': 'm', 'quality': '3', 'quality_eyes': '3', 'quality_mouth': '3', 'quality_ears': '3', 'quality_hair': '3', 'quality_neck': '3', 'facial_hair': '0.0', 'notes': None, 'race_common': 'black', 'gender_common': 'man'}","{'muct_id': '24', 'lighting': 'q', 'race_guess': 'b', 'gender_guess': 'w', 'quality': '3', 'quality_eyes': '3', 'quality_mouth': '3', 'quality_ears': '3', 'quality_hair': '3', 'quality_neck': '3', 'facial_hair': '0.0', 'notes': None, 'race_common': 'black', 'gender_common': 'woman'}",man,055,0.0,0.9097270965576172,black,25L,D,woman,020,1.0,0.8857640624046326,34.0,25L,C,black,25L,C,50.0,"['../stimuli/version1_color/id055_25L_D.png', '../stimuli/version1_color/id020_25L_C.png']",00C,0.0,,,,,,,,,,,,,,,
732,6345f6649cb434415f3c219d,3153,<p><img src='../stimuli/version1_color/id133_25R_D.png' ></img><img src='../stimuli/version1_color/id112_50L_C.png' ></img></p>,37,retrieval,159,582673,0.0-153.0,60b086e07a56549b8b182f8a,633e47989d9c0ed6dfbfb57b,6345f36c759c3428cbeb2db2,,av7e29z4b64zkazn9kml,"10/11/2022, 4:04:04 PM",Chrome,task_exp2,chris,pilot_prolific_exp2.2,,,,True,1.0,,,,,,,13.0,,,,,"{'muct_id': '406', 'lighting': 'w', 'race_guess': 'b', 'gender_guess': 'm', 'quality': '3', 'quality_eyes': '3', 'quality_mouth': '3', 'quality_ears': '3', 'quality_hair': '3', 'quality_neck': '3', 'facial_hair': '1.0', 'notes': None, 'race_common': 'black', 'gender_common': 'man'}","{'muct_id': '601', 'lighting': 'y', 'race_guess': 'b', 'gender_guess': 'w', 'quality': '3', 'quality_eyes': '3', 'quality_mouth': '3', 'quality_ears': '3', 'quality_hair': '3', 'quality_neck': '3', 'facial_hair': '0.0', 'notes': 'mouth', 'race_common': 'black', 'gender_common': 'woman'}",man,112,1.0,0.8803887367248535,black,50L,C,woman,133,0.0,0.8928555250167847,6.0,25R,D,black,25R,D,50.0,"['../stimuli/version1_color/id133_25R_D.png', '../stimuli/version1_color/id112_50L_C.png']",00C,0.0,,,,,,,,,,,,,,,
733,6345f6689cb434415f3c219e,3361,<p><img src='../stimuli/version1_color/id124_25R_C.png' ></img><img src='../stimuli/version1_color/id121_50L_D.png' ></img></p>,68,retrieval,161,586675,0.0-155.0,60b086e07a56549b8b182f8a,633e47989d9c0ed6dfbfb57b,6345f36c759c3428cbeb2db2,,av7e29z4b64zkazn9kml,"10/11/2022, 4:04:08 PM",Chrome,task_exp2,chris,pilot_prolific_exp2.2,,,,False,1.0,,,,,,,14.0,,,,,"{'muct_id': '423', 'lighting': 'w', 'race_guess': 'b', 'gender_guess': 'm', 'quality': '3', 'quality_eyes': '3', 'quality_mouth': '3', 'quality_ears': '3', 'quality_hair': '3', 'quality_neck': '3', 'facial_hair': '1.0', 'notes': None, 'race_common': 'black', 'gender_common': 'man'}","{'muct_id': '431', 'lighting': 'x', 'race_guess': 'b', 'gender_guess': 'u', 'quality': '3', 'quality_eyes': '3', 'quality_mouth': '3', 'quality_ears': '3', 'quality_hair': '3', 'quality_neck': '3', 'facial_hair': '0.0', 'notes': 'mouth', 'race_common': 'black', 'gender_common': 'man'}",man,121,1.0,0.8960965275764465,black,50L,D,man,124,0.0,0.8763127326965332,30.0,25R,C,black,25R,C,50.0,"['../stimuli/version1_color/id124_25R_C.png', '../stimuli/version1_color/id121_50L_D.png']",00C,0.0,,,,,,,,,,,,,,,
734,6345f6699cb434415f3c219f,4294,<p><img src='../stimuli/version1_color/id076_25L_U.png' ></img><img src='../stimuli/version1_color/id153_25L_C.png' ></img></p>,28,retrieval,157,469385,0.0-151.0,61010cf76dbeae43033e1729,633e47989d9c0ed6dfbfb57b,6345f4638ad0a8b2bda1aec9,,0mr3yahvscry2m1qthcd,"10/11/2022, 5:04:09 PM",Chrome,task_exp2,chris,pilot_prolific_exp2.2,,,,True,1.0,,,,,,,12.0,,,,,"{'muct_id': '437', 'lighting': 'x', 'race_guess': 'w', 'gender_guess': 'w', 'quality': '3', 'quality_eyes': '3', 'quality_mouth': '3', 'quality_ears': '3', 'quality_hair': '3', 'quality_neck': '3', 'facial_hair': '0.0', 'notes': 'hair', 'race_common': 'white', 'gender_common': 'woman'}","{'muct_id': '233', 'lighting': 'u', 'race_guess': 'w', 'gender_guess': 'w', 'quality': '3', 'quality_eyes': '3', 'quality_mouth': '3', 'quality_ears': '3', 'quality_hair': '3', 'quality_neck': '3', 'facial_hair': '0.0', 'notes': 'earrings', 'race_common': 'white', 'gender_common': 'woman'}",woman,153,1.0,0.8821973204612732,white,25L,C,woman,076,0.0,0.8595909476280212,26.0,00C,U,white,25L,U,50.0,"['../stimuli/version1_color/id076_25L_U.png', '../stimuli/version1_color/id153_25L_C.png']",25L,-25.0,,,,,,,,,,,,,,,
735,6345f66d9cb434415f3c21a0,4079,<p><img src='../stimuli/version1_color/id141_25L_C.png' ></img><img src='../stimuli/version1_color/id149_00C_U.png' ></img></p>,0,retrieval,163,591486,0.0-157.0,60b086e07a56549b8b182f8a,633e47989d9c0ed6dfbfb57b,6345f36c759c3428cbeb2db2,,av7e29z4b64zkazn9kml,"10/11/2022, 4:04:13 PM",Chrome,task_exp2,chris,pilot_prolific_exp2.2,,,,True,1.0,,,,,,,15.0,,,,,"{'muct_id': '416', 'lighting': 'w', 'race_guess': 'w', 'gender_guess': 'm', 'quality': '3', 'quality_eyes': '3', 'quality_mouth': '3', 'quality_ears': '3', 'quality_hair': '3', 'quality_neck': '3', 'facial_hair': '2.0', 'notes': None, 'race_common': 'white', 'gender_common': 'man'}","{'muct_id': '77', 'lighting': 's', 'race_guess': 'w', 'gender_guess': 'w', 'quality': '3', 'quality_eyes': '3', 'quality_mouth': '3', 'quality_ears': '3', 'quality_hair': '3', 'quality_neck': '3', 'facial_hair': '0.0', 'notes': None, 'race_common': 'white', 'gender_common': 'woman'}",man,149,1.0,0.9301124811172485,white,00C,U,woman,141,0.0,0.8607546091079712,1.0,25L,C,white,25L,C,50.0,"['../stimuli/version1_color/id141_25L_C.png', '../stimuli/version1_color/id149_00C_U.png']",00C,0.0,,,,,,,,,,,,,,,
736,6345f66e9cb434415f3c21a1,3996,<p><img src='../stimuli/version1_color/id004_25L_D.png' ></img><img src='../stimuli/version1_color/id142_50L_D.png' ></img></p>,62,retrieval,159,474002,0.0-153.0,61010cf76dbeae43033e1729,633e47989d9c0ed6dfbfb57b,6345f4638ad0a8b2bda1aec9,,0mr3yahvscry2m1qthcd,"10/11/2022, 5:04:14 PM",Chrome,task_exp2,chris,pilot_prolific_exp2.2,,,,True,2.0,,,,,,,13.0,,,,,"{'muct_id': '4', 'lighting': 'q', 'race_guess': 'b', 'gender_guess': 'm', 'quality': '3', 'quality_eyes': '3', 'quality_mouth': '3', 'quality_ears': '3', 'quality_hair': '3', 'quality_neck': '3', 'facial_hair': '2.0', 'notes': None, 'race_common': 'black', 'gender_common': 'man'}","{'muct_id': '87', 'lighting': 'r', 'race_guess': 'b', 'gender_guess': 'w', 'quality': '3', 'quality_eyes': '3', 'quality_mouth': '3', 'quality_ears': '3', 'quality_hair': '3', 'quality_neck': '3', 'facial_hair': '0.0', 'notes': 'earrings hair', 'race_common': 'black', 'gender_common': 'woman'}",man,004,0.0,0.8898400068283081,black,25L,D,woman,142,1.0,0.8819727897644043,2.0,50L,D,black,50L,D,50.0,"['../stimuli/version1_color/id004_25L_D.png', '../stimuli/version1_color/id142_50L_D.png']",00C,0.0,,,,,,,,,,,,,,,
737,6345f6739cb434415f3c21a2,4659,<p><img src='../stimuli/version1_color/id005_25R_C.png' ></img><img src='../stimuli/version1_color/id077_00C_C.png' ></img></p>,100,retrieval,161,479502,0.0-155.0,61010cf76dbeae43033e1729,633e47989d9c0ed6dfbfb57b,6345f4638ad0a8b2bda1aec9,,0mr3yahvscry2m1qthcd,"10/11/2022, 5:04:19 PM",Chrome,task_exp2,chris,pilot_prolific_exp2.2,,,,True,2.0,,,,,,,14.0,,,,,"{'muct_id': '5', 'lighting': 'q', 'race_guess': 'b', 'gender_guess': 'w', 'quality': '3', 'quality_eyes': '3', 'quality_mouth': '3', 'quality_ears': '3', 'quality_hair': '3', 'quality_neck': '3', 'facial_hair': '0.0', 'notes': 'hat', 'race_common': 'black', 'gender_common': 'woman'}","{'muct_id': '235', 'lighting': 'u', 'race_guess': 'b', 'gender_guess': 'w', 'quality': '3', 'quality_eyes': '3', 'quality_mouth': '3', 'quality_ears': '3', 'quality_hair': '3', 'quality_neck': '3', 'facial_hair': '0.0', 'notes': 'earrings', 'race_common': 'black', 'gender_common': 'woman'}",woman,005,0.0,0.8768799304962158,black,25R,C,woman,077,1.0,0.9151434302330017,5.0,00C,C,black,00C,C,50.0,"['../stimuli/version1_color/id005_25R_C.png', '../stimuli/version1_color/id077_00C_C.png']",00C,0.0,,,,,,,,,,,,,,,
738,6345f6759cb434415f3c21a3,7443,<p><img src='../stimuli/version1_color/id105_50R_C.png' ></img><img src='../stimuli/version1_color/id083_50L_C.png' ></img></p>,74,retrieval,165,599604,0.0-159.0,60b086e07a56549b8b182f8a,633e47989d9c0ed6dfbfb57b,6345f36c759c3428cbeb2db2,,av7e29z4b64zkazn9kml,"10/11/2022, 4:04:21 PM",Chrome,task_exp2,chris,pilot_prolific_exp2.2,,,,True,2.0,,,,,,,16.0,,,,,"{'muct_id': '290', 'lighting': 't', 'race_guess': 'b', 'gender_guess': 'm', 'quality': '3', 'quality_eyes': '3', 'quality_mouth': '3', 'quality_ears': '3', 'quality_hair': '3', 'quality_neck': '3', 'facial_hair': '2.0', 'notes': None, 'race_common': 'black', 'gender_common': 'man'}","{'muct_id': '243', 'lighting': 'v', 'race_guess': 'b', 'gender_guess': 'm', 'quality': '3', 'quality_eyes': '3', 'quality_mouth': '3', 'quality_ears': '3', 'quality_hair': '3', 'quality_neck': '3', 'facial_hair': '0.0', 'notes': None, 'race_common': 'black', 'gender_common': 'man'}",man,105,0.0,0.868858277797699,black,50R,C,man,083,1.0,0.9061567783355713,33.0,50L,C,black,50L,C,50.0,"['../stimuli/version1_color/id105_50R_C.png', '../stimuli/version1_color/id083_50L_C.png']",00C,0.0,,,,,,,,,,,,,,,
739,6345f6789cb434415f3c21a4,3427,<p><img src='../stimuli/version1_color/id099_50R_D.png' ></img><img src='../stimuli/version1_color/id145_25L_U.png' ></img></p>,28,retrieval,163,483752,0.0-157.0,61010cf76dbeae43033e1729,633e47989d9c0ed6dfbfb57b,6345f4638ad0a8b2bda1aec9,,0mr3yahvscry2m1qthcd,"10/11/2022, 5:04:23 PM",Chrome,task_exp2,chris,pilot_prolific_exp2.2,,,,True,1.0,,,,,,,15.0,,,,,"{'muct_id': '230', 'lighting': 'u', 'race_guess': 'w', 'gender_guess': 'm', 'quality': '3', 'quality_eyes': '3', 'quality_mouth': '3', 'quality_ears': '3', 'quality_hair': '3', 'quality_neck': '3', 'facial_hair': '0.0', 'notes': 'hair', 'race_common': 'white', 'gender_common': 'man'}","{'muct_id': '278', 'lighting': 't', 'race_guess': 'w', 'gender_guess': 'm', 'quality': '3', 'quality_eyes': '3', 'quality_mouth': '3', 'quality_ears': '3', 'quality_hair': '3', 'quality_neck': '3', 'facial_hair': '0.0', 'notes': None, 'race_common': 'white', 'gender_common': 'man'}",man,145,1.0,0.8695591688156128,white,25L,U,man,099,0.0,0.8543753027915955,1.0,50R,D,white,50R,D,50.0,"['../stimuli/version1_color/id099_50R_D.png', '../stimuli/version1_color/id145_25L_U.png']",00C,0.0,,,,,,,,,,,,,,,
740,6345f67b9cb434415f3c21a5,4649,<p><img src='../stimuli/version1_color/id081_50R_C.png' ></img><img src='../stimuli/version1_color/id086_25R_U.png' ></img></p>,58,retrieval,167,604928,0.0-161.0,60b086e07a56549b8b182f8a,633e47989d9c0ed6dfbfb57b,6345f36c759c3428cbeb2db2,,av7e29z4b64zkazn9kml,"10/11/2022, 4:04:27 PM",Chrome,task_exp2,chris,pilot_prolific_exp2.2,,,,True,2.0,,,,,,,17.0,,,,,"{'muct_id': '241', 'lighting': 't', 'race_guess': 'u', 'gender_guess': 'm', 'quality': '3', 'quality_eyes': '3', 'quality_mouth': '3', 'quality_ears': '3', 'quality_hair': '3', 'quality_neck': '3', 'facial_hair': '1.0', 'notes': 'mouth', 'race_common': 'black', 'gender_common': 'man'}","{'muct_id': '250', 'lighting': 't', 'race_guess': 'b', 'gender_guess': 'm', 'quality': '3', 'quality_eyes': '3', 'quality_mouth': '3', 'quality_ears': '3', 'quality_hair': '3', 'quality_neck': '3', 'facial_hair': '1.0', 'notes': None, 'race_common': 'black', 'gender_common': 'man'}",man,081,0.0,0.889083981513977,black,50R,C,man,086,1.0,0.8607013821601868,36.0,50R,U,black,25R,U,50.0,"['../stimuli/version1_color/id081_50R_C.png', '../stimuli/version1_color/id086_25R_U.png']",25L,-25.0,,,,,,,,,,,,,,,
741,6345f67c9cb434415f3c21a6,3846,<p><img src='../stimuli/version1_color/id113_00C_U.png' ></img><img src='../stimuli/version1_color/id124_00C_D.png' ></img></p>,34,retrieval,165,488352,0.0-159.0,61010cf76dbeae43033e1729,633e47989d9c0ed6dfbfb57b,6345f4638ad0a8b2bda1aec9,,0mr3yahvscry2m1qthcd,"10/11/2022, 5:04:28 PM",Chrome,task_exp2,chris,pilot_prolific_exp2.2,,,,True,1.0,,,,,,,16.0,,,,,"{'muct_id': '431', 'lighting': 'x', 'race_guess': 'b', 'gender_guess': 'u', 'quality': '3', 'quality_eyes': '3', 'quality_mouth': '3', 'quality_ears': '3', 'quality_hair': '3', 'quality_neck': '3', 'facial_hair': '0.0', 'notes': 'mouth', 'race_common': 'black', 'gender_common': 'man'}","{'muct_id': '407', 'lighting': 'x', 'race_guess': 'u', 'gender_guess': 'm', 'quality': '3', 'quality_eyes': '3', 'quality_mouth': '3', 'quality_ears': '3', 'quality_hair': '3', 'quality_neck': '3', 'facial_hair': '3.0', 'notes': 'beard', 'race_common': 'black', 'gender_common': 'man'}",man,124,1.0,0.9286535382270813,black,00C,D,man,113,0.0,0.8898462057113647,0.0,25R,U,black,00C,U,50.0,"['../stimuli/version1_color/id113_00C_U.png', '../stimuli/version1_color/id124_00C_D.png']",25L,-25.0,,,,,,,,,,,,,,,
742,6345f6819cb434415f3c21a7,5171,<p><img src='../stimuli/version1_color/id057_25L_U.png' ></img><img src='../stimuli/version1_color/id132_50L_U.png' ></img></p>,43,retrieval,169,610852,0.0-163.0,60b086e07a56549b8b182f8a,633e47989d9c0ed6dfbfb57b,6345f36c759c3428cbeb2db2,,av7e29z4b64zkazn9kml,"10/11/2022, 4:04:33 PM",Chrome,task_exp2,chris,pilot_prolific_exp2.2,,,,True,1.0,,,,,,,18.0,,,,,"{'muct_id': '450', 'lighting': 'w', 'race_guess': 'b', 'gender_guess': 'm', 'quality': '3', 'quality_eyes': '3', 'quality_mouth': '3', 'quality_ears': '3', 'quality_hair': '3', 'quality_neck': '3', 'facial_hair': '4.0', 'notes': 'mouth', 'race_common': 'black', 'gender_common': 'man'}","{'muct_id': '83', 'lighting': 'r', 'race_guess': 'b', 'gender_guess': 'm', 'quality': '3', 'quality_eyes': '3', 'quality_mouth': '3', 'quality_ears': '3', 'quality_hair': '3', 'quality_neck': '3', 'facial_hair': '3.0', 'notes': None, 'race_common': 'black', 'gender_common': 'man'}",man,132,1.0,0.854153573513031,black,50L,U,man,057,0.0,0.8718394637107849,2.0,50L,U,black,25L,U,50.0,"['../stimuli/version1_color/id057_25L_U.png', '../stimuli/version1_color/id132_50L_U.png']",25R,25.0,,,,,,,,,,,,,,,
743,6345f6819cb434415f3c21a8,4512,<p><img src='../stimuli/version1_color/id089_25R_D.png' ></img><img src='../stimuli/version1_color/id049_50L_C.png' ></img></p>,32,retrieval,167,493602,0.0-161.0,61010cf76dbeae43033e1729,633e47989d9c0ed6dfbfb57b,6345f4638ad0a8b2bda1aec9,,0mr3yahvscry2m1qthcd,"10/11/2022, 5:04:33 PM",Chrome,task_exp2,chris,pilot_prolific_exp2.2,,,,False,2.0,,,,,,,17.0,,,,,"{'muct_id': '255', 'lighting': 't', 'race_guess': 'w', 'gender_guess': 'm', 'quality': '3', 'quality_eyes': '3', 'quality_mouth': '3', 'quality_ears': '3', 'quality_hair': '3', 'quality_neck': '3', 'facial_hair': '2.0', 'notes': None, 'race_common': 'white', 'gender_common': 'man'}","{'muct_id': '66', 'lighting': 'r', 'race_guess': 'w', 'gender_guess': 'm', 'quality': '3', 'quality_eyes': '3', 'quality_mouth': '3', 'quality_ears': '3', 'quality_hair': '3', 'quality_neck': '3', 'facial_hair': '0.0', 'notes': None, 'race_common': 'white', 'gender_common': 'man'}",man,089,0.0,0.8799545764923096,white,25R,D,man,049,1.0,0.9085409045219421,7.0,25L,C,white,50L,C,50.0,"['../stimuli/version1_color/id089_25R_D.png', '../stimuli/version1_color/id049_50L_C.png']",25L,-25.0,,,,,,,,,,,,,,,
744,6345f6879cb434415f3c21a9,4420,<p><img src='../stimuli/version1_color/id050_50R_C.png' ></img><img src='../stimuli/version1_color/id146_00C_C.png' ></img></p>,60,retrieval,169,498685,0.0-163.0,61010cf76dbeae43033e1729,633e47989d9c0ed6dfbfb57b,6345f4638ad0a8b2bda1aec9,,0mr3yahvscry2m1qthcd,"10/11/2022, 5:04:38 PM",Chrome,task_exp2,chris,pilot_prolific_exp2.2,,,,False,1.0,,,,,,,18.0,,,,,"{'muct_id': '254', 'lighting': 'v', 'race_guess': 'w', 'gender_guess': 'm', 'quality': '2', 'quality_eyes': '2', 'quality_mouth': '3', 'quality_ears': '3', 'quality_hair': '2', 'quality_neck': '3', 'facial_hair': '0.0', 'notes': 'hair', 'race_common': 'white', 'gender_common': 'man'}","{'muct_id': '70', 'lighting': 'r', 'race_guess': 'w', 'gender_guess': 'm', 'quality': '3', 'quality_eyes': '3', 'quality_mouth': '3', 'quality_ears': '3', 'quality_hair': '3', 'quality_neck': '3', 'facial_hair': '4.0', 'notes': 'beard', 'race_common': 'white', 'gender_common': 'man'}",man,146,1.0,0.9055975675582886,white,00C,C,man,050,0.0,0.8914190530776978,9.0,50R,C,white,50R,C,50.0,"['../stimuli/version1_color/id050_50R_C.png', '../stimuli/version1_color/id146_00C_C.png']",00C,0.0,,,,,,,,,,,,,,,
745,6345f6899cb434415f3c21aa,7581,<p><img src='../stimuli/version1_color/id128_25R_C.png' ></img><img src='../stimuli/version1_color/id069_25R_C.png' ></img></p>,40,retrieval,171,619084,0.0-165.0,60b086e07a56549b8b182f8a,633e47989d9c0ed6dfbfb57b,6345f36c759c3428cbeb2db2,,av7e29z4b64zkazn9kml,"10/11/2022, 4:04:41 PM",Chrome,task_exp2,chris,pilot_prolific_exp2.2,,,,False,2.0,,,,,,,19.0,,,,,"{'muct_id': '436', 'lighting': 'w', 'race_guess': 'b', 'gender_guess': 'm', 'quality': '3', 'quality_eyes': '3', 'quality_mouth': '3', 'quality_ears': '3', 'quality_hair': '3', 'quality_neck': '3', 'facial_hair': '3.0', 'notes': 'beard', 'race_common': 'black', 'gender_common': 'man'}","{'muct_id': '218', 'lighting': 't', 'race_guess': 'b', 'gender_guess': 'w', 'quality': '3', 'quality_eyes': '3', 'quality_mouth': '3', 'quality_ears': '3', 'quality_hair': '3', 'quality_neck': '3', 'facial_hair': '0.0', 'notes': None, 'race_common': 'black', 'gender_common': 'woman'}",man,128,0.0,0.860930860042572,black,25R,C,woman,069,1.0,0.8937536478042603,38.0,00C,C,black,25R,C,50.0,"['../stimuli/version1_color/id128_25R_C.png', '../stimuli/version1_color/id069_25R_C.png']",25R,25.0,,,,,,,,,,,,,,,
746,6345f68b9cb434415f3c21ab,4233,<p><img src='../stimuli/version1_color/id091_50R_U.png' ></img><img src='../stimuli/version1_color/id019_25R_U.png' ></img></p>,32,retrieval,171,503568,0.0-165.0,61010cf76dbeae43033e1729,633e47989d9c0ed6dfbfb57b,6345f4638ad0a8b2bda1aec9,,0mr3yahvscry2m1qthcd,"10/11/2022, 5:04:43 PM",Chrome,task_exp2,chris,pilot_prolific_exp2.2,,,,False,2.0,,,,,,,19.0,,,,,"{'muct_id': '260', 'lighting': 't', 'race_guess': 'b', 'gender_guess': 'm', 'quality': '3', 'quality_eyes': '3', 'quality_mouth': '3', 'quality_ears': '3', 'quality_hair': '3', 'quality_neck': '3', 'facial_hair': '4.0', 'notes': 'beard', 'race_common': 'black', 'gender_common': 'man'}","{'muct_id': '23', 'lighting': 'q', 'race_guess': 'b', 'gender_guess': 'u', 'quality': '3', 'quality_eyes': '3', 'quality_mouth': '3', 'quality_ears': '3', 'quality_hair': '3', 'quality_neck': '3', 'facial_hair': '0.0', 'notes': None, 'race_common': 'black', 'gender_common': 'woman'}",man,091,0.0,0.912815272808075,black,50R,U,woman,019,1.0,0.8595448732376099,30.0,50R,U,black,25R,U,50.0,"['../stimuli/version1_color/id091_50R_U.png', '../stimuli/version1_color/id019_25R_U.png']",25L,-25.0,,,,,,,,,,,,,,,
747,6345f6909cb434415f3c21ac,6283,<p><img src='../stimuli/version1_color/id017_50R_U.png' ></img><img src='../stimuli/version1_color/id032_50L_C.png' ></img></p>,34,retrieval,173,626052,0.0-167.0,60b086e07a56549b8b182f8a,633e47989d9c0ed6dfbfb57b,6345f36c759c3428cbeb2db2,,av7e29z4b64zkazn9kml,"10/11/2022, 4:04:48 PM",Chrome,task_exp2,chris,pilot_prolific_exp2.2,,,,True,1.0,,,,,,,20.0,,,,,"{'muct_id': '43', 'lighting': 'q', 'race_guess': 'w', 'gender_guess': 'm', 'quality': '3', 'quality_eyes': '3', 'quality_mouth': '3', 'quality_ears': '3', 'quality_hair': '3', 'quality_neck': '3', 'facial_hair': '0.0', 'notes': None, 'race_common': 'white', 'gender_common': 'man'}","{'muct_id': '19', 'lighting': 'r', 'race_guess': 'w', 'gender_guess': 'w', 'quality': '3', 'quality_eyes': '3', 'quality_mouth': '3', 'quality_ears': '3', 'quality_hair': '3', 'quality_neck': '3', 'facial_hair': '0.0', 'notes': None, 'race_common': 'white', 'gender_common': 'woman'}",man,032,1.0,0.9239621758460999,white,50L,C,woman,017,0.0,0.8899743556976318,8.0,50R,U,white,50R,U,50.0,"['../stimuli/version1_color/id017_50R_U.png', '../stimuli/version1_color/id032_50L_C.png']",00C,0.0,,,,,,,,,,,,,,,
748,6345f6919cb434415f3c21ad,4708,<p><img src='../stimuli/version1_color/id132_25R_D.png' ></img><img src='../stimuli/version1_color/id072_25L_C.png' ></img></p>,61,retrieval,173,508985,0.0-167.0,61010cf76dbeae43033e1729,633e47989d9c0ed6dfbfb57b,6345f4638ad0a8b2bda1aec9,,0mr3yahvscry2m1qthcd,"10/11/2022, 5:04:49 PM",Chrome,task_exp2,chris,pilot_prolific_exp2.2,,,,True,2.0,,,,,,,20.0,,,,,"{'muct_id': '450', 'lighting': 'w', 'race_guess': 'b', 'gender_guess': 'm', 'quality': '3', 'quality_eyes': '3', 'quality_mouth': '3', 'quality_ears': '3', 'quality_hair': '3', 'quality_neck': '3', 'facial_hair': '4.0', 'notes': 'mouth', 'race_common': 'black', 'gender_common': 'man'}","{'muct_id': '224', 'lighting': 't', 'race_guess': 'u', 'gender_guess': 'm', 'quality': '3', 'quality_eyes': '3', 'quality_mouth': '3', 'quality_ears': '3', 'quality_hair': '3', 'quality_neck': '3', 'facial_hair': '0.0', 'notes': 'smile', 'race_common': 'black', 'gender_common': 'man'}",man,132,0.0,0.8653265237808228,black,25R,D,man,072,1.0,0.8835214972496033,13.0,25L,C,black,25L,C,50.0,"['../stimuli/version1_color/id132_25R_D.png', '../stimuli/version1_color/id072_25L_C.png']",00C,0.0,,,,,,,,,,,,,,,
749,6345f6949cb434415f3c21ae,3935,<p><img src='../stimuli/version1_color/id046_25R_C.png' ></img><img src='../stimuli/version1_color/id060_50L_U.png' ></img></p>,66,retrieval,175,630717,0.0-169.0,60b086e07a56549b8b182f8a,633e47989d9c0ed6dfbfb57b,6345f36c759c3428cbeb2db2,,av7e29z4b64zkazn9kml,"10/11/2022, 4:04:52 PM",Chrome,task_exp2,chris,pilot_prolific_exp2.2,,,,False,1.0,,,,,,,21.0,,,,,"{'muct_id': '88', 'lighting': 'q', 'race_guess': 'b', 'gender_guess': 'w', 'quality': '3', 'quality_eyes': '3', 'quality_mouth': '3', 'quality_ears': '3', 'quality_hair': '3', 'quality_neck': '3', 'facial_hair': '0.0', 'notes': 'earrings', 'race_common': 'black', 'gender_common': 'woman'}","{'muct_id': '63', 'lighting': 'q', 'race_guess': 'i', 'gender_guess': 'w', 'quality': '3', 'quality_eyes': '3', 'quality_mouth': '3', 'quality_ears': '3', 'quality_hair': '3', 'quality_neck': '3', 'facial_hair': '0.0', 'notes': None, 'race_common': 'black', 'gender_common': 'woman'}",woman,060,1.0,0.9186893701553345,black,50L,U,woman,046,0.0,0.8799632787704468,11.0,50R,C,black,25R,C,50.0,"['../stimuli/version1_color/id046_25R_C.png', '../stimuli/version1_color/id060_50L_U.png']",25L,-25.0,,,,,,,,,,,,,,,
750,6345f6979cb434415f3c21af,5533,<p><img src='../stimuli/version1_color/id083_00C_D.png' ></img><img src='../stimuli/version1_color/id059_25L_U.png' ></img></p>,59,retrieval,175,515301,0.0-169.0,61010cf76dbeae43033e1729,633e47989d9c0ed6dfbfb57b,6345f4638ad0a8b2bda1aec9,,0mr3yahvscry2m1qthcd,"10/11/2022, 5:04:55 PM",Chrome,task_exp2,chris,pilot_prolific_exp2.2,,,,True,2.0,,,,,,,21.0,,,,,"{'muct_id': '243', 'lighting': 'v', 'race_guess': 'b', 'gender_guess': 'm', 'quality': '3', 'quality_eyes': '3', 'quality_mouth': '3', 'quality_ears': '3', 'quality_hair': '3', 'quality_neck': '3', 'facial_hair': '0.0', 'notes': None, 'race_common': 'black', 'gender_common': 'man'}","{'muct_id': '86', 'lighting': 'q', 'race_guess': 'b', 'gender_guess': 'w', 'quality': '3', 'quality_eyes': '3', 'quality_mouth': '3', 'quality_ears': '3', 'quality_hair': '3', 'quality_neck': '3', 'facial_hair': '0.0', 'notes': 'earrings', 'race_common': 'black', 'gender_common': 'woman'}",man,083,0.0,0.9131970405578613,black,00C,D,woman,059,1.0,0.870963454246521,8.0,25L,U,black,25L,U,50.0,"['../stimuli/version1_color/id083_00C_D.png', '../stimuli/version1_color/id059_25L_U.png']",00C,0.0,,,,,,,,,,,,,,,
751,6345f69a9cb434415f3c21b0,5406,<p><img src='../stimuli/version1_color/id001_25R_D.png' ></img><img src='../stimuli/version1_color/id035_25R_D.png' ></img></p>,67,retrieval,177,636774,0.0-171.0,60b086e07a56549b8b182f8a,633e47989d9c0ed6dfbfb57b,6345f36c759c3428cbeb2db2,,av7e29z4b64zkazn9kml,"10/11/2022, 4:04:58 PM",Chrome,task_exp2,chris,pilot_prolific_exp2.2,,,,True,2.0,,,,,,,22.0,,,,,"{'muct_id': '1', 'lighting': 'q', 'race_guess': 'b', 'gender_guess': 'm', 'quality': '3', 'quality_eyes': '3', 'quality_mouth': '3', 'quality_ears': '3', 'quality_hair': '3', 'quality_neck': '3', 'facial_hair': '1.0', 'notes': None, 'race_common': 'black', 'gender_common': 'man'}","{'muct_id': '46', 'lighting': 'q', 'race_guess': 'b', 'gender_guess': 'w', 'quality': '3', 'quality_eyes': '3', 'quality_mouth': '3', 'quality_ears': '3', 'quality_hair': '3', 'quality_neck': '3', 'facial_hair': '0.0', 'notes': 'earrings', 'race_common': 'black', 'gender_common': 'woman'}",man,001,0.0,0.9094056487083435,black,25R,D,woman,035,1.0,0.8828200101852417,0.0,00C,D,black,25R,D,50.0,"['../stimuli/version1_color/id001_25R_D.png', '../stimuli/version1_color/id035_25R_D.png']",25R,25.0,,,,,,,,,,,,,,,
752,6345f69d9cb434415f3c21b1,5277,<p><img src='../stimuli/version1_color/id064_25R_U.png' ></img><img src='../stimuli/version1_color/id056_50L_D.png' ></img></p>,67,retrieval,177,521517,0.0-171.0,61010cf76dbeae43033e1729,633e47989d9c0ed6dfbfb57b,6345f4638ad0a8b2bda1aec9,,0mr3yahvscry2m1qthcd,"10/11/2022, 5:05:01 PM",Chrome,task_exp2,chris,pilot_prolific_exp2.2,,,,True,2.0,,,,,,,22.0,,,,,"{'muct_id': '204', 'lighting': 't', 'race_guess': 'b', 'gender_guess': 'm', 'quality': '3', 'quality_eyes': '3', 'quality_mouth': '3', 'quality_ears': '3', 'quality_hair': '3', 'quality_neck': '3', 'facial_hair': '1.0', 'notes': None, 'race_common': 'black', 'gender_common': 'man'}","{'muct_id': '82', 'lighting': 'q', 'race_guess': 'b', 'gender_guess': 'm', 'quality': '3', 'quality_eyes': '3', 'quality_mouth': '3', 'quality_ears': '3', 'quality_hair': '3', 'quality_neck': '3', 'facial_hair': '1.0', 'notes': None, 'race_common': 'black', 'gender_common': 'man'}",man,064,0.0,0.8846109509468079,black,25R,U,man,056,1.0,0.8717567920684814,15.0,25L,D,black,50L,D,50.0,"['../stimuli/version1_color/id064_25R_U.png', '../stimuli/version1_color/id056_50L_D.png']",25L,-25.0,,,,,,,,,,,,,,,
753,6345f6a29cb434415f3c21b2,6495,<p><img src='../stimuli/version1_color/id117_50L_C.png' ></img><img src='../stimuli/version1_color/id085_25R_D.png' ></img></p>,36,retrieval,179,643949,0.0-173.0,60b086e07a56549b8b182f8a,633e47989d9c0ed6dfbfb57b,6345f36c759c3428cbeb2db2,,av7e29z4b64zkazn9kml,"10/11/2022, 4:05:06 PM",Chrome,task_exp2,chris,pilot_prolific_exp2.2,,,,False,2.0,,,,,,,23.0,,,,,"{'muct_id': '417', 'lighting': 'w', 'race_guess': 'b', 'gender_guess': 'm', 'quality': '3', 'quality_eyes': '3', 'quality_mouth': '3', 'quality_ears': '3', 'quality_hair': '3', 'quality_neck': '3', 'facial_hair': '1.0', 'notes': 'mouth', 'race_common': 'black', 'gender_common': 'man'}","{'muct_id': '249', 'lighting': 't', 'race_guess': 'b', 'gender_guess': 'w', 'quality': '2', 'quality_eyes': '2', 'quality_mouth': '3', 'quality_ears': '3', 'quality_hair': '3', 'quality_neck': '3', 'facial_hair': '0.0', 'notes': None, 'race_common': 'black', 'gender_common': 'man'}",man,117,0.0,0.8841155171394348,black,50L,C,man,085,1.0,0.8649094700813293,15.0,50R,D,black,25R,D,50.0,"['../stimuli/version1_color/id117_50L_C.png', '../stimuli/version1_color/id085_25R_D.png']",25L,-25.0,,,,,,,,,,,,,,,
754,6345f6a29cb434415f3c21b3,4169,<p><img src='../stimuli/version1_color/id012_25R_C.png' ></img><img src='../stimuli/version1_color/id094_00C_C.png' ></img></p>,72,retrieval,179,526401,0.0-173.0,61010cf76dbeae43033e1729,633e47989d9c0ed6dfbfb57b,6345f4638ad0a8b2bda1aec9,,0mr3yahvscry2m1qthcd,"10/11/2022, 5:05:06 PM",Chrome,task_exp2,chris,pilot_prolific_exp2.2,,,,True,2.0,,,,,,,23.0,,,,,"{'muct_id': '12', 'lighting': 'q', 'race_guess': 'i', 'gender_guess': 'm', 'quality': '3', 'quality_eyes': '3', 'quality_mouth': '3', 'quality_ears': '3', 'quality_hair': '3', 'quality_neck': '3', 'facial_hair': '2.0', 'notes': None, 'race_common': 'white', 'gender_common': 'man'}","{'muct_id': '264', 'lighting': 't', 'race_guess': 'w', 'gender_guess': 'm', 'quality': '3', 'quality_eyes': '3', 'quality_mouth': '3', 'quality_ears': '3', 'quality_hair': '3', 'quality_neck': '3', 'facial_hair': '0.0', 'notes': None, 'race_common': 'white', 'gender_common': 'man'}",man,012,0.0,0.8717243671417236,white,25R,C,man,094,1.0,0.9345658421516418,3.0,25R,C,white,00C,C,50.0,"['../stimuli/version1_color/id012_25R_C.png', '../stimuli/version1_color/id094_00C_C.png']",25L,-25.0,,,,,,,,,,,,,,,
755,6345f6a89cb434415f3c21b4,5178,<p><img src='../stimuli/version1_color/id123_50L_D.png' ></img><img src='../stimuli/version1_color/id054_50R_C.png' ></img></p>,70,retrieval,181,532251,0.0-175.0,61010cf76dbeae43033e1729,633e47989d9c0ed6dfbfb57b,6345f4638ad0a8b2bda1aec9,,0mr3yahvscry2m1qthcd,"10/11/2022, 5:05:12 PM",Chrome,task_exp2,chris,pilot_prolific_exp2.2,,,,True,2.0,,,,,,,24.0,,,,,"{'muct_id': '76', 'lighting': 'q', 'race_guess': 'w', 'gender_guess': 'w', 'quality': '2', 'quality_eyes': '2', 'quality_mouth': '3', 'quality_ears': '2', 'quality_hair': '2', 'quality_neck': '3', 'facial_hair': '0.0', 'notes': 'hair', 'race_common': 'white', 'gender_common': 'woman'}","{'muct_id': '80', 'lighting': 's', 'race_guess': 'b', 'gender_guess': 'w', 'quality': '3', 'quality_eyes': '3', 'quality_mouth': '3', 'quality_ears': '3', 'quality_hair': '3', 'quality_neck': '3', 'facial_hair': '0.0', 'notes': 'earrings', 'race_common': 'white', 'gender_common': 'woman'}",woman,123,0.0,0.9294329285621643,white,50L,D,woman,054,1.0,0.8519195914268494,28.0,50R,C,white,50R,C,50.0,"['../stimuli/version1_color/id123_50L_D.png', '../stimuli/version1_color/id054_50R_C.png']",00C,0.0,,,,,,,,,,,,,,,
756,6345f6aa9cb434415f3c21b5,8135,<p><img src='../stimuli/version1_color/id030_00C_D.png' ></img><img src='../stimuli/version1_color/id107_50L_C.png' ></img></p>,61,retrieval,181,652702,0.0-175.0,60b086e07a56549b8b182f8a,633e47989d9c0ed6dfbfb57b,6345f36c759c3428cbeb2db2,,av7e29z4b64zkazn9kml,"10/11/2022, 4:05:14 PM",Chrome,task_exp2,chris,pilot_prolific_exp2.2,,,,False,1.0,,,,,,,24.0,,,,,"{'muct_id': '297', 'lighting': 't', 'race_guess': 'b', 'gender_guess': 'm', 'quality': '3', 'quality_eyes': '3', 'quality_mouth': '3', 'quality_ears': '3', 'quality_hair': '3', 'quality_neck': '3', 'facial_hair': '4.0', 'notes': 'beard', 'race_common': 'black', 'gender_common': 'man'}","{'muct_id': '41', 'lighting': 'r', 'race_guess': 'b', 'gender_guess': 'm', 'quality': '3', 'quality_eyes': '3', 'quality_mouth': '3', 'quality_ears': '3', 'quality_hair': '3', 'quality_neck': '3', 'facial_hair': '0.0', 'notes': None, 'race_common': 'black', 'gender_common': 'man'}",man,107,1.0,0.8758145570755005,black,50L,C,man,030,0.0,0.9392428398132324,28.0,25R,D,black,00C,D,50.0,"['../stimuli/version1_color/id030_00C_D.png', '../stimuli/version1_color/id107_50L_C.png']",25L,-25.0,,,,,,,,,,,,,,,
757,6345f6b09cb434415f3c21b6,6767,<p><img src='../stimuli/version1_color/id143_50L_D.png' ></img><img src='../stimuli/version1_color/id053_00C_D.png' ></img></p>,18,retrieval,183,539767,0.0-177.0,61010cf76dbeae43033e1729,633e47989d9c0ed6dfbfb57b,6345f4638ad0a8b2bda1aec9,,0mr3yahvscry2m1qthcd,"10/11/2022, 5:05:19 PM",Chrome,task_exp2,chris,pilot_prolific_exp2.2,,,,False,2.0,,,,,,,25.0,,,,,"{'muct_id': '90', 'lighting': 'q', 'race_guess': 'u', 'gender_guess': 'm', 'quality': '2', 'quality_eyes': '3', 'quality_mouth': '3', 'quality_ears': '2', 'quality_hair': '3', 'quality_neck': '3', 'facial_hair': '4.0', 'notes': 'beard', 'race_common': 'white', 'gender_common': 'man'}","{'muct_id': '79', 'lighting': 'r', 'race_guess': 'i', 'gender_guess': 'm', 'quality': '2', 'quality_eyes': '2', 'quality_mouth': '3', 'quality_ears': '3', 'quality_hair': '2', 'quality_neck': '3', 'facial_hair': '0.0', 'notes': None, 'race_common': 'white', 'gender_common': 'man'}",man,143,0.0,0.8700258135795593,white,50L,D,man,053,1.0,0.9207145571708679,17.0,25L,D,white,00C,D,50.0,"['../stimuli/version1_color/id143_50L_D.png', '../stimuli/version1_color/id053_00C_D.png']",25R,25.0,,,,,,,,,,,,,,,
758,6345f6b29cb434415f3c21b7,4637,<p><img src='../stimuli/version1_color/id148_25L_D.png' ></img><img src='../stimuli/version1_color/id092_25R_C.png' ></img></p>,40,retrieval,183,660098,0.0-177.0,60b086e07a56549b8b182f8a,633e47989d9c0ed6dfbfb57b,6345f36c759c3428cbeb2db2,,av7e29z4b64zkazn9kml,"10/11/2022, 4:05:22 PM",Chrome,task_exp2,chris,pilot_prolific_exp2.2,,,,False,2.0,,,,,,,25.0,,,,,"{'muct_id': '415', 'lighting': 'w', 'race_guess': 'w', 'gender_guess': 'w', 'quality': '3', 'quality_eyes': '3', 'quality_mouth': '3', 'quality_ears': '3', 'quality_hair': '3', 'quality_neck': '3', 'facial_hair': '0.0', 'notes': None, 'race_common': 'white', 'gender_common': 'woman'}","{'muct_id': '261', 'lighting': 'v', 'race_guess': 'w', 'gender_guess': 'm', 'quality': '2', 'quality_eyes': '2', 'quality_mouth': '3', 'quality_ears': '3', 'quality_hair': '3', 'quality_neck': '3', 'facial_hair': '0.0', 'notes': None, 'race_common': 'white', 'gender_common': 'man'}",woman,148,0.0,0.9108169078826904,white,25L,D,man,092,1.0,0.8990710377693176,23.0,50R,C,white,25R,C,50.0,"['../stimuli/version1_color/id148_25L_D.png', '../stimuli/version1_color/id092_25R_C.png']",25L,-25.0,,,,,,,,,,,,,,,
759,6345f6b59cb434415f3c21b8,4464,<p><img src='../stimuli/version1_color/id032_00C_U.png' ></img><img src='../stimuli/version1_color/id037_25L_U.png' ></img></p>,10,retrieval,185,544951,0.0-179.0,61010cf76dbeae43033e1729,633e47989d9c0ed6dfbfb57b,6345f4638ad0a8b2bda1aec9,,0mr3yahvscry2m1qthcd,"10/11/2022, 5:05:25 PM",Chrome,task_exp2,chris,pilot_prolific_exp2.2,,,,False,2.0,,,,,,,26.0,,,,,"{'muct_id': '43', 'lighting': 'q', 'race_guess': 'w', 'gender_guess': 'm', 'quality': '3', 'quality_eyes': '3', 'quality_mouth': '3', 'quality_ears': '3', 'quality_hair': '3', 'quality_neck': '3', 'facial_hair': '0.0', 'notes': None, 'race_common': 'white', 'gender_common': 'man'}","{'muct_id': '48', 'lighting': 'w', 'race_guess': 'w', 'gender_guess': 'm', 'quality': '3', 'quality_eyes': '3', 'quality_mouth': '3', 'quality_ears': '3', 'quality_hair': '3', 'quality_neck': '3', 'facial_hair': '0.0', 'notes': None, 'race_common': 'white', 'gender_common': 'man'}",man,032,0.0,0.8932823538780212,white,00C,U,man,037,1.0,0.8657358288764954,31.0,50L,U,white,25L,U,50.0,"['../stimuli/version1_color/id032_00C_U.png', '../stimuli/version1_color/id037_25L_U.png']",25R,25.0,,,,,,,,,,,,,,,
760,6345f6ba9cb434415f3c21b9,4731,<p><img src='../stimuli/version1_color/id140_50L_D.png' ></img><img src='../stimuli/version1_color/id027_25R_C.png' ></img></p>,11,retrieval,187,550317,0.0-181.0,61010cf76dbeae43033e1729,633e47989d9c0ed6dfbfb57b,6345f4638ad0a8b2bda1aec9,,0mr3yahvscry2m1qthcd,"10/11/2022, 5:05:30 PM",Chrome,task_exp2,chris,pilot_prolific_exp2.2,,,,False,2.0,,,,,,,27.0,,,,,"{'muct_id': '624', 'lighting': 'y', 'race_guess': 'b', 'gender_guess': 'w', 'quality': '3', 'quality_eyes': '3', 'quality_mouth': '3', 'quality_ears': '3', 'quality_hair': '3', 'quality_neck': '3', 'facial_hair': '0.0', 'notes': 'headband, earring', 'race_common': 'black', 'gender_common': 'woman'}","{'muct_id': '37', 'lighting': 'q', 'race_guess': 'b', 'gender_guess': 'w', 'quality': '3', 'quality_eyes': '3', 'quality_mouth': '3', 'quality_ears': '3', 'quality_hair': '3', 'quality_neck': '3', 'facial_hair': '0.0', 'notes': 'earrings', 'race_common': 'black', 'gender_common': 'woman'}",woman,140,0.0,0.8625451922416687,black,50L,D,woman,027,1.0,0.8737854957580566,36.0,00C,C,black,25R,C,50.0,"['../stimuli/version1_color/id140_50L_D.png', '../stimuli/version1_color/id027_25R_C.png']",25R,25.0,,,,,,,,,,,,,,,
761,6345f6bb9cb434415f3c21ba,8325,<p><img src='../stimuli/version1_color/id080_50R_D.png' ></img><img src='../stimuli/version1_color/id052_25R_D.png' ></img></p>,40,retrieval,185,668996,0.0-179.0,60b086e07a56549b8b182f8a,633e47989d9c0ed6dfbfb57b,6345f36c759c3428cbeb2db2,,av7e29z4b64zkazn9kml,"10/11/2022, 4:05:31 PM",Chrome,task_exp2,chris,pilot_prolific_exp2.2,,,,False,2.0,,,,,,,26.0,,,,,"{'muct_id': '240', 'lighting': 'u', 'race_guess': 'w', 'gender_guess': 'm', 'quality': '3', 'quality_eyes': '3', 'quality_mouth': '3', 'quality_ears': '3', 'quality_hair': '3', 'quality_neck': '3', 'facial_hair': '0.0', 'notes': 'mouth', 'race_common': 'white', 'gender_common': 'man'}","{'muct_id': '75', 'lighting': 'q', 'race_guess': 'w', 'gender_guess': 'm', 'quality': '3', 'quality_eyes': '3', 'quality_mouth': '3', 'quality_ears': '3', 'quality_hair': '3', 'quality_neck': '3', 'facial_hair': '4.0', 'notes': 'beard', 'race_common': 'white', 'gender_common': 'man'}",man,080,0.0,0.8891374468803406,white,50R,D,man,052,1.0,0.8953088521957397,4.0,50R,D,white,25R,D,50.0,"['../stimuli/version1_color/id080_50R_D.png', '../stimuli/version1_color/id052_25R_D.png']",25L,-25.0,,,,,,,,,,,,,,,
762,6345f6c09cb434415f3c21bb,5623,<p><img src='../stimuli/version1_color/id001_50R_D.png' ></img><img src='../stimuli/version1_color/id022_00C_C.png' ></img></p>,35,retrieval,189,556617,0.0-183.0,61010cf76dbeae43033e1729,633e47989d9c0ed6dfbfb57b,6345f4638ad0a8b2bda1aec9,,0mr3yahvscry2m1qthcd,"10/11/2022, 5:05:36 PM",Chrome,task_exp2,chris,pilot_prolific_exp2.2,,,,False,2.0,,,,,,,28.0,,,,,"{'muct_id': '1', 'lighting': 'q', 'race_guess': 'b', 'gender_guess': 'm', 'quality': '3', 'quality_eyes': '3', 'quality_mouth': '3', 'quality_ears': '3', 'quality_hair': '3', 'quality_neck': '3', 'facial_hair': '1.0', 'notes': None, 'race_common': 'black', 'gender_common': 'man'}","{'muct_id': '26', 'lighting': 'q', 'race_guess': 'b', 'gender_guess': 'w', 'quality': '3', 'quality_eyes': '3', 'quality_mouth': '3', 'quality_ears': '3', 'quality_hair': '3', 'quality_neck': '3', 'facial_hair': '0.0', 'notes': 'earrings', 'race_common': 'black', 'gender_common': 'woman'}",man,001,0.0,0.9091846942901611,black,50R,D,woman,022,1.0,0.9286060333251953,27.0,00C,C,black,00C,C,50.0,"['../stimuli/version1_color/id001_50R_D.png', '../stimuli/version1_color/id022_00C_C.png']",00C,0.0,,,,,,,,,,,,,,,
763,6345f6c49cb434415f3c21bc,8348,<p><img src='../stimuli/version1_color/id152_25L_C.png' ></img><img src='../stimuli/version1_color/id003_25R_D.png' ></img></p>,56,retrieval,187,678016,0.0-181.0,60b086e07a56549b8b182f8a,633e47989d9c0ed6dfbfb57b,6345f36c759c3428cbeb2db2,,av7e29z4b64zkazn9kml,"10/11/2022, 4:05:40 PM",Chrome,task_exp2,chris,pilot_prolific_exp2.2,,,,False,1.0,,,,,,,27.0,,,,,"{'muct_id': '3', 'lighting': 's', 'race_guess': 'i', 'gender_guess': 'w', 'quality': '2', 'quality_eyes': '3', 'quality_mouth': '3', 'quality_ears': '3', 'quality_hair': '2', 'quality_neck': '3', 'facial_hair': '0.0', 'notes': 'hair', 'race_common': 'white', 'gender_common': 'woman'}","{'muct_id': '446', 'lighting': 'w', 'race_guess': 'w', 'gender_guess': 'w', 'quality': '3', 'quality_eyes': '3', 'quality_mouth': '3', 'quality_ears': '3', 'quality_hair': '3', 'quality_neck': '3', 'facial_hair': '0.0', 'notes': None, 'race_common': 'white', 'gender_common': 'woman'}",woman,003,1.0,0.8699246644973755,white,25R,D,woman,152,0.0,0.865893542766571,22.0,50L,C,white,25L,C,50.0,"['../stimuli/version1_color/id152_25L_C.png', '../stimuli/version1_color/id003_25R_D.png']",25R,25.0,,,,,,,,,,,,,,,
764,6345f6c59cb434415f3c21bd,3476,<p><img src='../stimuli/version1_color/id018_25R_C.png' ></img><img src='../stimuli/version1_color/id017_25R_U.png' ></img></p>,0,retrieval,191,560750,0.0-185.0,61010cf76dbeae43033e1729,633e47989d9c0ed6dfbfb57b,6345f4638ad0a8b2bda1aec9,,0mr3yahvscry2m1qthcd,"10/11/2022, 5:05:40 PM",Chrome,task_exp2,chris,pilot_prolific_exp2.2,,,,True,1.0,,,,,,,29.0,,,,,"{'muct_id': '19', 'lighting': 'r', 'race_guess': 'w', 'gender_guess': 'w', 'quality': '3', 'quality_eyes': '3', 'quality_mouth': '3', 'quality_ears': '3', 'quality_hair': '3', 'quality_neck': '3', 'facial_hair': '0.0', 'notes': None, 'race_common': 'white', 'gender_common': 'woman'}","{'muct_id': '21', 'lighting': 'q', 'race_guess': 'w', 'gender_guess': 'w', 'quality': '3', 'quality_eyes': '3', 'quality_mouth': '3', 'quality_ears': '3', 'quality_hair': '3', 'quality_neck': '3', 'facial_hair': '0.0', 'notes': None, 'race_common': 'white', 'gender_common': 'woman'}",woman,017,1.0,0.9013704657554626,white,25R,U,woman,018,0.0,0.8703852891921997,23.0,25R,C,white,25R,C,50.0,"['../stimuli/version1_color/id018_25R_C.png', '../stimuli/version1_color/id017_25R_U.png']",00C,0.0,,,,,,,,,,,,,,,
765,6345f6c99cb434415f3c21be,3466,<p><img src='../stimuli/version1_color/id090_25L_U.png' ></img><img src='../stimuli/version1_color/id021_50L_U.png' ></img></p>,39,retrieval,189,682850,0.0-183.0,60b086e07a56549b8b182f8a,633e47989d9c0ed6dfbfb57b,6345f36c759c3428cbeb2db2,,av7e29z4b64zkazn9kml,"10/11/2022, 4:05:45 PM",Chrome,task_exp2,chris,pilot_prolific_exp2.2,,,,False,2.0,,,,,,,28.0,,,,,"{'muct_id': '259', 'lighting': 'v', 'race_guess': 'b', 'gender_guess': 'm', 'quality': '3', 'quality_eyes': '3', 'quality_mouth': '3', 'quality_ears': '3', 'quality_hair': '3', 'quality_neck': '3', 'facial_hair': '2.0', 'notes': None, 'race_common': 'black', 'gender_common': 'man'}","{'muct_id': '25', 'lighting': 'r', 'race_guess': 'b', 'gender_guess': 'm', 'quality': '3', 'quality_eyes': '3', 'quality_mouth': '3', 'quality_ears': '3', 'quality_hair': '3', 'quality_neck': '3', 'facial_hair': '2.0', 'notes': None, 'race_common': 'black', 'gender_common': 'man'}",man,090,0.0,0.905584454536438,black,25L,U,man,021,1.0,0.8377984762191772,35.0,50L,U,black,50L,U,50.0,"['../stimuli/version1_color/id090_25L_U.png', '../stimuli/version1_color/id021_50L_U.png']",00C,0.0,,,,,,,,,,,,,,,
766,6345f6ca9cb434415f3c21bf,4314,<p><img src='../stimuli/version1_color/id128_25R_D.png' ></img><img src='../stimuli/version1_color/id127_25L_D.png' ></img></p>,78,retrieval,193,565850,0.0-187.0,61010cf76dbeae43033e1729,633e47989d9c0ed6dfbfb57b,6345f4638ad0a8b2bda1aec9,,0mr3yahvscry2m1qthcd,"10/11/2022, 5:05:46 PM",Chrome,task_exp2,chris,pilot_prolific_exp2.2,,,,True,2.0,,,,,,,30.0,,,,,"{'muct_id': '436', 'lighting': 'w', 'race_guess': 'b', 'gender_guess': 'm', 'quality': '3', 'quality_eyes': '3', 'quality_mouth': '3', 'quality_ears': '3', 'quality_hair': '3', 'quality_neck': '3', 'facial_hair': '3.0', 'notes': 'beard', 'race_common': 'black', 'gender_common': 'man'}","{'muct_id': '435', 'lighting': 'x', 'race_guess': 'b', 'gender_guess': 'w', 'quality': '3', 'quality_eyes': '3', 'quality_mouth': '3', 'quality_ears': '3', 'quality_hair': '3', 'quality_neck': '3', 'facial_hair': '0.0', 'notes': 'bandana', 'race_common': 'black', 'gender_common': 'woman'}",man,128,0.0,0.8473927974700928,black,25R,D,woman,127,1.0,0.9023149013519287,32.0,50L,D,black,25L,D,50.0,"['../stimuli/version1_color/id128_25R_D.png', '../stimuli/version1_color/id127_25L_D.png']",25R,25.0,,,,,,,,,,,,,,,
767,6345f6ce9cb434415f3c21c0,4163,<p><img src='../stimuli/version1_color/id102_50L_C.png' ></img><img src='../stimuli/version1_color/id073_00C_D.png' ></img></p>,60,retrieval,191,687832,0.0-185.0,60b086e07a56549b8b182f8a,633e47989d9c0ed6dfbfb57b,6345f36c759c3428cbeb2db2,,av7e29z4b64zkazn9kml,"10/11/2022, 4:05:50 PM",Chrome,task_exp2,chris,pilot_prolific_exp2.2,,,,True,2.0,,,,,,,29.0,,,,,"{'muct_id': '283', 'lighting': 't', 'race_guess': 'i', 'gender_guess': 'w', 'quality': '3', 'quality_eyes': '3', 'quality_mouth': '3', 'quality_ears': '3', 'quality_hair': '3', 'quality_neck': '3', 'facial_hair': '0.0', 'notes': 'pottu', 'race_common': 'white', 'gender_common': 'woman'}","{'muct_id': '225', 'lighting': 'u', 'race_guess': 'w', 'gender_guess': 'm', 'quality': '3', 'quality_eyes': '3', 'quality_mouth': '3', 'quality_ears': '3', 'quality_hair': '3', 'quality_neck': '3', 'facial_hair': '2.0', 'notes': None, 'race_common': 'white', 'gender_common': 'man'}",woman,102,0.0,0.861515462398529,white,50L,C,man,073,1.0,0.9439999461174011,3.0,25R,D,white,00C,D,50.0,"['../stimuli/version1_color/id102_50L_C.png', '../stimuli/version1_color/id073_00C_D.png']",25L,-25.0,,,,,,,,,,,,,,,
