,_id,browser,choice,collection,correct,correct_response,database,datetime,experiment_id,internal_node_id,iteration,key_press,oddity_gender,oddity_identity,oddity_index,oddity_mb,oddity_race,oddity_tiltLR,oddity_tiltUD,rt,stimulus,time_elapsed,timed_out,trial_index,trial_number,trial_type,typicals_gender,typicals_identity,typicals_indices,typicals_mb,typicals_race,typicals_tiltsLR,typicals_tiltsUD,practice_threshold_met,oddity_meta,typicals_meta,button_pressed,last_trial_type,prediction,choice_category,choice_object,oddity_category,oddity_name,oddity_type,stimulus_response_map,typical_category,typical_indices,typical_name,variation_level,meta_new,meta_old,new_gender,new_identity,new_index,new_mb,new_race,new_tiltLR,new_tiltUD,old_encoding_pair,old_encoding_type,old_gender,old_identity,old_index,old_mb,old_original_index,old_original_tiltLR,old_original_tiltUD,old_race,old_tiltLR,old_tiltUD,response,stimuli,tilt_change,tilt_difference,encoding_accuracy,encoding_avg_rt,encoding_n_trials,experimental_duration,filler_accuracy,filler_avg_rt,filler_n_trials,params,retrieval_accuracy,retrieval_avg_rt,retrieval_n_trials,total_bonus,total_payment,age,gender,gender_other,latinx,race,session_id,study_id,subject_id,slider_start
0,627597201a371c538416d1d4,Chrome,1.0,main_task_2,1.0,1.0,chris,"5/6/2022, 2:46:07 PM",cwrleqd2sft9acsfwuho,0.0-2.0-0.0,pilot_sona_afc2,37.0,man,038,0.0,0.8666332960128784,latinx,25L,D,3000.0,"['../stimuli/version1_gray_lm/id038_25L_D.png', '../stimuli/version1_gray_lm/id110_00C_C.png', '../stimuli/version1_gray_lm/id110_50R_U.png']",32000.0,0.0,2.0,1.0,encoding_practice,woman,110,"[1, 2]","[0.8150807619094849, 0.8715043663978577]",latinx,"['00C', '50R']","['C', 'U']",,,,,,,,,,,,,,,,,,,,,,,,,,,,,,,,,,,,,,,,,,,,,,,,,,,,,,,,,,,,,,,
1,627597241a371c538416d1d5,Chrome,3.0,main_task_2,1.0,3.0,chris,"5/6/2022, 2:46:11 PM",cwrleqd2sft9acsfwuho,0.0-2.1-0.1,pilot_sona_afc2,40.0,man,038,2.0,0.8014088273048401,latinx,50L,C,1759.0,"['../stimuli/version1_gray_lm/id110_00C_U.png', '../stimuli/version1_gray_lm/id110_50R_D.png', '../stimuli/version1_gray_lm/id038_50L_C.png']",36027.0,0.0,4.0,2.0,encoding_practice,woman,110,"[0, 1]","[0.899799644947052, 0.8334890604019165]",latinx,"['00C', '50R']","['U', 'D']",,,,,,,,,,,,,,,,,,,,,,,,,,,,,,,,,,,,,,,,,,,,,,,,,,,,,,,,,,,,,,,
2,627597261a371c538416d1d6,Chrome,3.0,main_task_2,1.0,3.0,chris,"5/6/2022, 2:46:14 PM",cwrleqd2sft9acsfwuho,0.0-2.2-0.2,pilot_sona_afc2,40.0,woman,110,2.0,0.899799644947052,latinx,00C,U,1885.0,"['../stimuli/version1_gray_lm/id008_25L_D.png', '../stimuli/version1_gray_lm/id008_50R_C.png', '../stimuli/version1_gray_lm/id110_00C_U.png']",38522.0,0.0,6.0,3.0,encoding_practice,man,008,"[0, 1]","[0.8497543931007385, 0.8650676012039185]",latinx,"['25L', '50R']","['D', 'C']",1.0,,,,,,,,,,,,,,,,,,,,,,,,,,,,,,,,,,,,,,,,,,,,,,,,,,,,,,,,,,,,,,
3,6275972d1a371c538416d1d7,Chrome,2.0,main_task_2,1.0,2.0,chris,"5/6/2022, 2:46:20 PM",cwrleqd2sft9acsfwuho,0.0-4.0,pilot_sona_afc2,39.0,woman,007,1.0,0.8601640462875366,white,00C,D,2623.0,"['../stimuli/version1_gray_lm/id152_50R_C.png', '../stimuli/version1_gray_lm/id007_00C_D.png', '../stimuli/version1_gray_lm/id152_25L_U.png']",45242.0,0.0,9.0,1.0,encoding,woman,152,"[0, 2]","[0.8014732003211975, 0.8561945557594299]",white,"['50R', '25L']","['C', 'U']",,"{'muct_id': '7', 'lighting': 's', 'race_guess': 'u', 'gender_guess': 'w', 'quality': '3', 'quality_eyes': '3', 'quality_mouth': '3', 'quality_ears': '3', 'quality_hair': '3', 'quality_neck': '3', 'facial_hair': '0.0', 'notes': None, 'race_common': 'white', 'gender_common': 'woman'}","{'muct_id': '446', 'lighting': 'w', 'race_guess': 'w', 'gender_guess': 'w', 'quality': '3', 'quality_eyes': '3', 'quality_mouth': '3', 'quality_ears': '3', 'quality_hair': '3', 'quality_neck': '3', 'facial_hair': '0.0', 'notes': None, 'race_common': 'white', 'gender_common': 'woman'}",,,,,,,,,,,,,,,,,,,,,,,,,,,,,,,,,,,,,,,,,,,,,,,,,,,,,,,,,,,,
4,627597311a371c538416d1d8,Chrome,1.0,main_task_2,0.0,3.0,chris,"5/6/2022, 2:46:24 PM",cwrleqd2sft9acsfwuho,0.0-6.0,pilot_sona_afc2,37.0,woman,127,2.0,0.8330003023147583,black,25L,D,2482.0,"['../stimuli/version1_gray_lm/id126_50R_C.png', '../stimuli/version1_gray_lm/id126_00C_U.png', '../stimuli/version1_gray_lm/id127_25L_D.png']",48673.0,0.0,11.0,2.0,encoding,woman,126,"[0, 1]","[0.8118584156036377, 0.8040019869804382]",black,"['50R', '00C']","['C', 'U']",,"{'muct_id': '435', 'lighting': 'x', 'race_guess': 'b', 'gender_guess': 'w', 'quality': '3', 'quality_eyes': '3', 'quality_mouth': '3', 'quality_ears': '3', 'quality_hair': '3', 'quality_neck': '3', 'facial_hair': '0.0', 'notes': 'bandana', 'race_common': 'black', 'gender_common': 'woman'}","{'muct_id': '434', 'lighting': 'w', 'race_guess': 'b', 'gender_guess': 'w', 'quality': '3', 'quality_eyes': '3', 'quality_mouth': '3', 'quality_ears': '3', 'quality_hair': '3', 'quality_neck': '3', 'facial_hair': '0.0', 'notes': 'earrings', 'race_common': 'black', 'gender_common': 'woman'}",,,,,,,,,,,,,,,,,,,,,,,,,,,,,,,,,,,,,,,,,,,,,,,,,,,,,,,,,,,,
5,627597341a371c538416d1d9,Chrome,3.0,main_task_2,1.0,3.0,chris,"5/6/2022, 2:46:27 PM",cwrleqd2sft9acsfwuho,0.0-8.0,pilot_sona_afc2,40.0,man,121,2.0,0.8360601663589478,black,00C,C,2439.0,"['../stimuli/version1_gray_lm/id128_50L_D.png', '../stimuli/version1_gray_lm/id128_50R_U.png', '../stimuli/version1_gray_lm/id121_00C_C.png']",51735.0,0.0,13.0,3.0,encoding,man,128,"[0, 1]","[0.8178924322128296, 0.8728622794151306]",black,"['50L', '50R']","['D', 'U']",,"{'muct_id': '423', 'lighting': 'w', 'race_guess': 'b', 'gender_guess': 'm', 'quality': '3', 'quality_eyes': '3', 'quality_mouth': '3', 'quality_ears': '3', 'quality_hair': '3', 'quality_neck': '3', 'facial_hair': '1.0', 'notes': None, 'race_common': 'black', 'gender_common': 'man'}","{'muct_id': '436', 'lighting': 'w', 'race_guess': 'b', 'gender_guess': 'm', 'quality': '3', 'quality_eyes': '3', 'quality_mouth': '3', 'quality_ears': '3', 'quality_hair': '3', 'quality_neck': '3', 'facial_hair': '3.0', 'notes': 'beard', 'race_common': 'black', 'gender_common': 'man'}",,,,,,,,,,,,,,,,,,,,,,,,,,,,,,,,,,,,,,,,,,,,,,,,,,,,,,,,,,,,
6,627597381a371c538416d1da,Chrome,1.0,main_task_2,1.0,1.0,chris,"5/6/2022, 2:46:31 PM",cwrleqd2sft9acsfwuho,0.0-10.0,pilot_sona_afc2,37.0,man,034,0.0,0.8324532508850098,white,00C,C,3359.0,"['../stimuli/version1_gray_lm/id034_00C_C.png', '../stimuli/version1_gray_lm/id037_50R_D.png', '../stimuli/version1_gray_lm/id037_50L_U.png']",55804.0,0.0,15.0,4.0,encoding,man,037,"[1, 2]","[0.8234284520149231, 0.7935327291488647]",white,"['50R', '50L']","['D', 'U']",,"{'muct_id': '45', 'lighting': 'q', 'race_guess': 'w', 'gender_guess': 'm', 'quality': '3', 'quality_eyes': '3', 'quality_mouth': '3', 'quality_ears': '3', 'quality_hair': '3', 'quality_neck': '3', 'facial_hair': '0.0', 'notes': None, 'race_common': 'white', 'gender_common': 'man'}","{'muct_id': '48', 'lighting': 'w', 'race_guess': 'w', 'gender_guess': 'm', 'quality': '3', 'quality_eyes': '3', 'quality_mouth': '3', 'quality_ears': '3', 'quality_hair': '3', 'quality_neck': '3', 'facial_hair': '0.0', 'notes': None, 'race_common': 'white', 'gender_common': 'man'}",,,,,,,,,,,,,,,,,,,,,,,,,,,,,,,,,,,,,,,,,,,,,,,,,,,,,,,,,,,,
7,6275973a1a371c538416d1db,Chrome,3.0,main_task_2,1.0,3.0,chris,"5/6/2022, 2:46:34 PM",cwrleqd2sft9acsfwuho,0.0-12.0,pilot_sona_afc2,40.0,woman,059,2.0,0.8079833984375,black,50R,D,2155.0,"['../stimuli/version1_gray_lm/id068_00C_C.png', '../stimuli/version1_gray_lm/id068_25L_U.png', '../stimuli/version1_gray_lm/id059_50R_D.png']",58569.0,0.0,17.0,5.0,encoding,woman,068,"[0, 1]","[0.8297914862632751, 0.8137908577919006]",black,"['00C', '25L']","['C', 'U']",,"{'muct_id': '86', 'lighting': 'q', 'race_guess': 'b', 'gender_guess': 'w', 'quality': '3', 'quality_eyes': '3', 'quality_mouth': '3', 'quality_ears': '3', 'quality_hair': '3', 'quality_neck': '3', 'facial_hair': '0.0', 'notes': 'earrings', 'race_common': 'black', 'gender_common': 'woman'}","{'muct_id': '213', 'lighting': 'u', 'race_guess': 'b', 'gender_guess': 'w', 'quality': '3', 'quality_eyes': '3', 'quality_mouth': '3', 'quality_ears': '3', 'quality_hair': '3', 'quality_neck': '3', 'facial_hair': '0.0', 'notes': None, 'race_common': 'black', 'gender_common': 'woman'}",,,,,,,,,,,,,,,,,,,,,,,,,,,,,,,,,,,,,,,,,,,,,,,,,,,,,,,,,,,,
8,6275973f1a371c538416d1dc,Chrome,1.0,main_task_2,0.0,3.0,chris,"5/6/2022, 2:46:38 PM",cwrleqd2sft9acsfwuho,0.0-14.0,pilot_sona_afc2,37.0,man,053,2.0,0.8159154057502747,white,25R,D,3232.0,"['../stimuli/version1_gray_lm/id043_25L_U.png', '../stimuli/version1_gray_lm/id043_00C_C.png', '../stimuli/version1_gray_lm/id053_25R_D.png']",62750.0,0.0,19.0,6.0,encoding,man,043,"[0, 1]","[0.8465712070465088, 0.8674020767211914]",white,"['25L', '00C']","['U', 'C']",,"{'muct_id': '79', 'lighting': 'r', 'race_guess': 'i', 'gender_guess': 'm', 'quality': '2', 'quality_eyes': '2', 'quality_mouth': '3', 'quality_ears': '3', 'quality_hair': '2', 'quality_neck': '3', 'facial_hair': '0.0', 'notes': None, 'race_common': 'white', 'gender_common': 'man'}","{'muct_id': '58', 'lighting': 'q', 'race_guess': 'w', 'gender_guess': 'm', 'quality': '3', 'quality_eyes': '3', 'quality_mouth': '3', 'quality_ears': '3', 'quality_hair': '3', 'quality_neck': '3', 'facial_hair': '0.0', 'notes': None, 'race_common': 'white', 'gender_common': 'man'}",,,,,,,,,,,,,,,,,,,,,,,,,,,,,,,,,,,,,,,,,,,,,,,,,,,,,,,,,,,,
9,627597421a371c538416d1dd,Chrome,3.0,main_task_2,1.0,3.0,chris,"5/6/2022, 2:46:41 PM",cwrleqd2sft9acsfwuho,0.0-16.0,pilot_sona_afc2,40.0,man,033,2.0,0.8084548115730286,black,25L,U,2349.0,"['../stimuli/version1_gray_lm/id056_00C_D.png', '../stimuli/version1_gray_lm/id056_50R_C.png', '../stimuli/version1_gray_lm/id033_25L_U.png']",65884.0,0.0,21.0,7.0,encoding,man,056,"[0, 1]","[0.8718909025192261, 0.7972558736801147]",black,"['00C', '50R']","['D', 'C']",,"{'muct_id': '44', 'lighting': 'q', 'race_guess': 'u', 'gender_guess': 'm', 'quality': '3', 'quality_eyes': '3', 'quality_mouth': '3', 'quality_ears': '3', 'quality_hair': '3', 'quality_neck': '3', 'facial_hair': '2.0', 'notes': None, 'race_common': 'black', 'gender_common': 'man'}","{'muct_id': '82', 'lighting': 'q', 'race_guess': 'b', 'gender_guess': 'm', 'quality': '3', 'quality_eyes': '3', 'quality_mouth': '3', 'quality_ears': '3', 'quality_hair': '3', 'quality_neck': '3', 'facial_hair': '1.0', 'notes': None, 'race_common': 'black', 'gender_common': 'man'}",,,,,,,,,,,,,,,,,,,,,,,,,,,,,,,,,,,,,,,,,,,,,,,,,,,,,,,,,,,,
10,627597451a371c538416d1de,Chrome,1.0,main_task_2,1.0,1.0,chris,"5/6/2022, 2:46:45 PM",cwrleqd2sft9acsfwuho,0.0-18.0,pilot_sona_afc2,37.0,woman,141,0.0,0.7728375792503357,white,50L,U,2807.0,"['../stimuli/version1_gray_lm/id141_50L_U.png', '../stimuli/version1_gray_lm/id031_50R_D.png', '../stimuli/version1_gray_lm/id031_00C_C.png']",69458.0,0.0,23.0,8.0,encoding,woman,031,"[1, 2]","[0.7973371744155884, 0.8678648471832275]",white,"['50R', '00C']","['D', 'C']",,"{'muct_id': '77', 'lighting': 's', 'race_guess': 'w', 'gender_guess': 'w', 'quality': '3', 'quality_eyes': '3', 'quality_mouth': '3', 'quality_ears': '3', 'quality_hair': '3', 'quality_neck': '3', 'facial_hair': '0.0', 'notes': None, 'race_common': 'white', 'gender_common': 'woman'}","{'muct_id': '42', 'lighting': 'q', 'race_guess': 'u', 'gender_guess': 'w', 'quality': '2', 'quality_eyes': '3', 'quality_mouth': '3', 'quality_ears': '2', 'quality_hair': '3', 'quality_neck': '3', 'facial_hair': '0.0', 'notes': 'mouth', 'race_common': 'white', 'gender_common': 'woman'}",,,,,,,,,,,,,,,,,,,,,,,,,,,,,,,,,,,,,,,,,,,,,,,,,,,,,,,,,,,,
11,627597471a371c538416d1df,Chrome,3.0,main_task_2,1.0,3.0,chris,"5/6/2022, 2:46:47 PM",cwrleqd2sft9acsfwuho,0.0-20.0,pilot_sona_afc2,40.0,woman,029,2.0,0.8426966667175293,white,25R,U,1799.0,"['../stimuli/version1_gray_lm/id101_00C_D.png', '../stimuli/version1_gray_lm/id101_25L_C.png', '../stimuli/version1_gray_lm/id029_25R_U.png']",71555.0,0.0,25.0,9.0,encoding,woman,101,"[0, 1]","[0.8530598878860474, 0.8769526481628418]",white,"['00C', '25L']","['D', 'C']",,"{'muct_id': '39', 'lighting': 'r', 'race_guess': 'w', 'gender_guess': 'w', 'quality': '3', 'quality_eyes': '3', 'quality_mouth': '3', 'quality_ears': '3', 'quality_hair': '3', 'quality_neck': '3', 'facial_hair': '0.0', 'notes': 'earrings hair', 'race_common': 'white', 'gender_common': 'woman'}","{'muct_id': '281', 'lighting': 't', 'race_guess': 'w', 'gender_guess': 'w', 'quality': '3', 'quality_eyes': '3', 'quality_mouth': '3', 'quality_ears': '3', 'quality_hair': '3', 'quality_neck': '3', 'facial_hair': '0.0', 'notes': None, 'race_common': 'white', 'gender_common': 'woman'}",,,,,,,,,,,,,,,,,,,,,,,,,,,,,,,,,,,,,,,,,,,,,,,,,,,,,,,,,,,,
12,6275974c1a371c538416d1e0,Chrome,1.0,main_task_2,1.0,1.0,chris,"5/6/2022, 2:46:51 PM",cwrleqd2sft9acsfwuho,0.0-22.0,pilot_sona_afc2,37.0,man,001,0.0,0.8297335505485535,black,50L,C,3726.0,"['../stimuli/version1_gray_lm/id001_50L_C.png', '../stimuli/version1_gray_lm/id107_50R_U.png', '../stimuli/version1_gray_lm/id107_00C_D.png']",75878.0,0.0,27.0,10.0,encoding,man,107,"[1, 2]","[0.815606415271759, 0.8626779317855835]",black,"['50R', '00C']","['U', 'D']",,"{'muct_id': '1', 'lighting': 'q', 'race_guess': 'b', 'gender_guess': 'm', 'quality': '3', 'quality_eyes': '3', 'quality_mouth': '3', 'quality_ears': '3', 'quality_hair': '3', 'quality_neck': '3', 'facial_hair': '1.0', 'notes': None, 'race_common': 'black', 'gender_common': 'man'}","{'muct_id': '297', 'lighting': 't', 'race_guess': 'b', 'gender_guess': 'm', 'quality': '3', 'quality_eyes': '3', 'quality_mouth': '3', 'quality_ears': '3', 'quality_hair': '3', 'quality_neck': '3', 'facial_hair': '4.0', 'notes': 'beard', 'race_common': 'black', 'gender_common': 'man'}",,,,,,,,,,,,,,,,,,,,,,,,,,,,,,,,,,,,,,,,,,,,,,,,,,,,,,,,,,,,
13,6275974f1a371c538416d1e1,Chrome,3.0,main_task_2,0.0,1.0,chris,"5/6/2022, 2:46:54 PM",cwrleqd2sft9acsfwuho,0.0-24.0,pilot_sona_afc2,40.0,man,098,0.0,0.7912300825119019,black,50L,U,2595.0,"['../stimuli/version1_gray_lm/id098_50L_U.png', '../stimuli/version1_gray_lm/id057_00C_C.png', '../stimuli/version1_gray_lm/id057_25R_D.png']",78928.0,0.0,29.0,11.0,encoding,man,057,"[1, 2]","[0.884845495223999, 0.8223825693130493]",black,"['00C', '25R']","['C', 'D']",,"{'muct_id': '274', 'lighting': 't', 'race_guess': 'b', 'gender_guess': 'm', 'quality': '3', 'quality_eyes': '3', 'quality_mouth': '3', 'quality_ears': '3', 'quality_hair': '3', 'quality_neck': '3', 'facial_hair': '4.0', 'notes': None, 'race_common': 'black', 'gender_common': 'man'}","{'muct_id': '83', 'lighting': 'r', 'race_guess': 'b', 'gender_guess': 'm', 'quality': '3', 'quality_eyes': '3', 'quality_mouth': '3', 'quality_ears': '3', 'quality_hair': '3', 'quality_neck': '3', 'facial_hair': '3.0', 'notes': None, 'race_common': 'black', 'gender_common': 'man'}",,,,,,,,,,,,,,,,,,,,,,,,,,,,,,,,,,,,,,,,,,,,,,,,,,,,,,,,,,,,
14,627597531a371c538416d1e2,Chrome,3.0,main_task_2,1.0,3.0,chris,"5/6/2022, 2:46:58 PM",cwrleqd2sft9acsfwuho,0.0-26.0,pilot_sona_afc2,40.0,woman,017,2.0,0.7348342537879944,white,50L,U,3815.0,"['../stimuli/version1_gray_lm/id088_00C_C.png', '../stimuli/version1_gray_lm/id088_50R_D.png', '../stimuli/version1_gray_lm/id017_50L_U.png']",83154.0,0.0,31.0,12.0,encoding,woman,088,"[0, 1]","[0.8383283019065857, 0.8244401812553406]",white,"['00C', '50R']","['C', 'D']",,"{'muct_id': '19', 'lighting': 'r', 'race_guess': 'w', 'gender_guess': 'w', 'quality': '3', 'quality_eyes': '3', 'quality_mouth': '3', 'quality_ears': '3', 'quality_hair': '3', 'quality_neck': '3', 'facial_hair': '0.0', 'notes': None, 'race_common': 'white', 'gender_common': 'woman'}","{'muct_id': '252', 'lighting': 't', 'race_guess': 'w', 'gender_guess': 'w', 'quality': '3', 'quality_eyes': '3', 'quality_mouth': '3', 'quality_ears': '3', 'quality_hair': '3', 'quality_neck': '3', 'facial_hair': '0.0', 'notes': 'hair', 'race_common': 'white', 'gender_common': 'woman'}",,,,,,,,,,,,,,,,,,,,,,,,,,,,,,,,,,,,,,,,,,,,,,,,,,,,,,,,,,,,
15,627597581a371c538416d1e3,Chrome,1.0,main_task_2,1.0,1.0,chris,"5/6/2022, 2:47:03 PM",cwrleqd2sft9acsfwuho,0.0-28.0,pilot_sona_afc2,37.0,woman,054,0.0,0.7908950448036194,white,25L,U,3915.0,"['../stimuli/version1_gray_lm/id054_25L_U.png', '../stimuli/version1_gray_lm/id102_25R_C.png', '../stimuli/version1_gray_lm/id102_00C_D.png']",87720.0,0.0,33.0,13.0,encoding,woman,102,"[1, 2]","[0.8107014298439026, 0.8271998167037964]",white,"['25R', '00C']","['C', 'D']",,"{'muct_id': '80', 'lighting': 's', 'race_guess': 'b', 'gender_guess': 'w', 'quality': '3', 'quality_eyes': '3', 'quality_mouth': '3', 'quality_ears': '3', 'quality_hair': '3', 'quality_neck': '3', 'facial_hair': '0.0', 'notes': 'earrings', 'race_common': 'white', 'gender_common': 'woman'}","{'muct_id': '283', 'lighting': 't', 'race_guess': 'i', 'gender_guess': 'w', 'quality': '3', 'quality_eyes': '3', 'quality_mouth': '3', 'quality_ears': '3', 'quality_hair': '3', 'quality_neck': '3', 'facial_hair': '0.0', 'notes': 'pottu', 'race_common': 'white', 'gender_common': 'woman'}",,,,,,,,,,,,,,,,,,,,,,,,,,,,,,,,,,,,,,,,,,,,,,,,,,,,,,,,,,,,
16,6275975c1a371c538416d1e4,Chrome,2.0,main_task_2,1.0,2.0,chris,"5/6/2022, 2:47:07 PM",cwrleqd2sft9acsfwuho,0.0-30.0,pilot_sona_afc2,39.0,man,118,1.0,0.850471019744873,black,00C,C,4322.0,"['../stimuli/version1_gray_lm/id065_50R_U.png', '../stimuli/version1_gray_lm/id118_00C_C.png', '../stimuli/version1_gray_lm/id065_25L_D.png']",92381.0,0.0,35.0,14.0,encoding,man,065,"[0, 2]","[0.8685653805732727, 0.8453065156936646]",black,"['50R', '25L']","['U', 'D']",,"{'muct_id': '419', 'lighting': 'x', 'race_guess': 'b', 'gender_guess': 'm', 'quality': '3', 'quality_eyes': '3', 'quality_mouth': '3', 'quality_ears': '3', 'quality_hair': '3', 'quality_neck': '3', 'facial_hair': '1.0', 'notes': None, 'race_common': 'black', 'gender_common': 'man'}","{'muct_id': '206', 'lighting': 't', 'race_guess': 'b', 'gender_guess': 'm', 'quality': '3', 'quality_eyes': '3', 'quality_mouth': '3', 'quality_ears': '3', 'quality_hair': '3', 'quality_neck': '3', 'facial_hair': '1.0', 'notes': None, 'race_common': 'black', 'gender_common': 'man'}",,,,,,,,,,,,,,,,,,,,,,,,,,,,,,,,,,,,,,,,,,,,,,,,,,,,,,,,,,,,
17,627597621a371c538416d1e5,Chrome,3.0,main_task_2,0.0,2.0,chris,"5/6/2022, 2:47:13 PM",cwrleqd2sft9acsfwuho,0.0-32.0,pilot_sona_afc2,40.0,woman,136,1.0,0.8299121856689453,black,00C,U,4831.0,"['../stimuli/version1_gray_lm/id027_50L_C.png', '../stimuli/version1_gray_lm/id136_00C_U.png', '../stimuli/version1_gray_lm/id027_50R_D.png']",97642.0,0.0,37.0,15.0,encoding,woman,027,"[0, 2]","[0.8284944891929626, 0.8450204730033875]",black,"['50L', '50R']","['C', 'D']",,"{'muct_id': '616', 'lighting': 'y', 'race_guess': 'b', 'gender_guess': 'w', 'quality': '3', 'quality_eyes': '3', 'quality_mouth': '3', 'quality_ears': '3', 'quality_hair': '3', 'quality_neck': '3', 'facial_hair': '0.0', 'notes': 'earrings', 'race_common': 'black', 'gender_common': 'woman'}","{'muct_id': '37', 'lighting': 'q', 'race_guess': 'b', 'gender_guess': 'w', 'quality': '3', 'quality_eyes': '3', 'quality_mouth': '3', 'quality_ears': '3', 'quality_hair': '3', 'quality_neck': '3', 'facial_hair': '0.0', 'notes': 'earrings', 'race_common': 'black', 'gender_common': 'woman'}",,,,,,,,,,,,,,,,,,,,,,,,,,,,,,,,,,,,,,,,,,,,,,,,,,,,,,,,,,,,
18,627597681a371c538416d1e6,Chrome,1.0,main_task_2,1.0,1.0,chris,"5/6/2022, 2:47:20 PM",cwrleqd2sft9acsfwuho,0.0-34.0,pilot_sona_afc2,37.0,woman,013,0.0,0.7987657785415649,white,50L,U,5811.0,"['../stimuli/version1_gray_lm/id013_50L_U.png', '../stimuli/version1_gray_lm/id042_00C_D.png', '../stimuli/version1_gray_lm/id042_25R_C.png']",104532.0,0.0,39.0,16.0,encoding,woman,042,"[1, 2]","[0.8566591739654541, 0.8282589316368103]",white,"['00C', '25R']","['D', 'C']",,"{'muct_id': '14', 'lighting': 'q', 'race_guess': 'w', 'gender_guess': 'w', 'quality': '3', 'quality_eyes': '3', 'quality_mouth': '3', 'quality_ears': '3', 'quality_hair': '3', 'quality_neck': '3', 'facial_hair': '0.0', 'notes': None, 'race_common': 'white', 'gender_common': 'woman'}","{'muct_id': '57', 'lighting': 'r', 'race_guess': 'b', 'gender_guess': 'w', 'quality': '3', 'quality_eyes': '3', 'quality_mouth': '3', 'quality_ears': '3', 'quality_hair': '3', 'quality_neck': '3', 'facial_hair': '0.0', 'notes': 'earrings', 'race_common': 'white', 'gender_common': 'woman'}",,,,,,,,,,,,,,,,,,,,,,,,,,,,,,,,,,,,,,,,,,,,,,,,,,,,,,,,,,,,
19,6275976d1a371c538416d1e7,Chrome,2.0,main_task_2,0.0,3.0,chris,"5/6/2022, 2:47:25 PM",cwrleqd2sft9acsfwuho,0.0-36.0,pilot_sona_afc2,39.0,man,041,2.0,0.8221980333328247,white,50L,C,4579.0,"['../stimuli/version1_gray_lm/id039_50R_U.png', '../stimuli/version1_gray_lm/id039_00C_D.png', '../stimuli/version1_gray_lm/id041_50L_C.png']",109608.0,0.0,41.0,17.0,encoding,man,039,"[0, 1]","[0.8241355419158936, 0.8948837518692017]",white,"['50R', '00C']","['U', 'D']",,"{'muct_id': '56', 'lighting': 'q', 'race_guess': 'w', 'gender_guess': 'm', 'quality': '3', 'quality_eyes': '3', 'quality_mouth': '3', 'quality_ears': '3', 'quality_hair': '3', 'quality_neck': '3', 'facial_hair': '0.0', 'notes': None, 'race_common': 'white', 'gender_common': 'man'}","{'muct_id': '52', 'lighting': 'q', 'race_guess': 'w', 'gender_guess': 'm', 'quality': '3', 'quality_eyes': '3', 'quality_mouth': '3', 'quality_ears': '3', 'quality_hair': '3', 'quality_neck': '3', 'facial_hair': '0.0', 'notes': None, 'race_common': 'white', 'gender_common': 'man'}",,,,,,,,,,,,,,,,,,,,,,,,,,,,,,,,,,,,,,,,,,,,,,,,,,,,,,,,,,,,
20,627597711a371c538416d1e8,Chrome,3.0,main_task_2,1.0,3.0,chris,"5/6/2022, 2:47:28 PM",cwrleqd2sft9acsfwuho,0.0-38.0,pilot_sona_afc2,40.0,man,086,2.0,0.7829839587211609,black,25R,U,2652.0,"['../stimuli/version1_gray_lm/id064_25L_C.png', '../stimuli/version1_gray_lm/id064_00C_D.png', '../stimuli/version1_gray_lm/id086_25R_U.png']",112742.0,0.0,43.0,18.0,encoding,man,064,"[0, 1]","[0.8300010561943054, 0.8627574443817139]",black,"['25L', '00C']","['C', 'D']",,"{'muct_id': '250', 'lighting': 't', 'race_guess': 'b', 'gender_guess': 'm', 'quality': '3', 'quality_eyes': '3', 'quality_mouth': '3', 'quality_ears': '3', 'quality_hair': '3', 'quality_neck': '3', 'facial_hair': '1.0', 'notes': None, 'race_common': 'black', 'gender_common': 'man'}","{'muct_id': '204', 'lighting': 't', 'race_guess': 'b', 'gender_guess': 'm', 'quality': '3', 'quality_eyes': '3', 'quality_mouth': '3', 'quality_ears': '3', 'quality_hair': '3', 'quality_neck': '3', 'facial_hair': '1.0', 'notes': None, 'race_common': 'black', 'gender_common': 'man'}",,,,,,,,,,,,,,,,,,,,,,,,,,,,,,,,,,,,,,,,,,,,,,,,,,,,,,,,,,,,
21,627597751a371c538416d1e9,Chrome,3.0,main_task_2,1.0,3.0,chris,"5/6/2022, 2:47:32 PM",cwrleqd2sft9acsfwuho,0.0-40.0,pilot_sona_afc2,40.0,man,143,2.0,0.8794283866882324,white,00C,C,3786.0,"['../stimuli/version1_gray_lm/id050_25L_D.png', '../stimuli/version1_gray_lm/id050_25R_U.png', '../stimuli/version1_gray_lm/id143_00C_C.png']",117010.0,0.0,45.0,19.0,encoding,man,050,"[0, 1]","[0.8485351204872131, 0.8189146518707275]",white,"['25L', '25R']","['D', 'U']",,"{'muct_id': '90', 'lighting': 'q', 'race_guess': 'u', 'gender_guess': 'm', 'quality': '2', 'quality_eyes': '3', 'quality_mouth': '3', 'quality_ears': '2', 'quality_hair': '3', 'quality_neck': '3', 'facial_hair': '4.0', 'notes': 'beard', 'race_common': 'white', 'gender_common': 'man'}","{'muct_id': '70', 'lighting': 'r', 'race_guess': 'w', 'gender_guess': 'm', 'quality': '3', 'quality_eyes': '3', 'quality_mouth': '3', 'quality_ears': '3', 'quality_hair': '3', 'quality_neck': '3', 'facial_hair': '4.0', 'notes': 'beard', 'race_common': 'white', 'gender_common': 'man'}",,,,,,,,,,,,,,,,,,,,,,,,,,,,,,,,,,,,,,,,,,,,,,,,,,,,,,,,,,,,
22,627597791a371c538416d1ea,Chrome,1.0,main_task_2,1.0,1.0,chris,"5/6/2022, 2:47:36 PM",cwrleqd2sft9acsfwuho,0.0-42.0,pilot_sona_afc2,37.0,man,055,0.0,0.8515849113464355,black,25R,D,3146.0,"['../stimuli/version1_gray_lm/id055_25R_D.png', '../stimuli/version1_gray_lm/id124_00C_U.png', '../stimuli/version1_gray_lm/id124_50L_C.png']",120651.0,0.0,47.0,20.0,encoding,man,124,"[1, 2]","[0.8433641195297241, 0.8180952668190002]",black,"['00C', '50L']","['U', 'C']",,"{'muct_id': '81', 'lighting': 'q', 'race_guess': 'b', 'gender_guess': 'm', 'quality': '3', 'quality_eyes': '3', 'quality_mouth': '3', 'quality_ears': '3', 'quality_hair': '3', 'quality_neck': '3', 'facial_hair': '0.0', 'notes': None, 'race_common': 'black', 'gender_common': 'man'}","{'muct_id': '431', 'lighting': 'x', 'race_guess': 'b', 'gender_guess': 'u', 'quality': '3', 'quality_eyes': '3', 'quality_mouth': '3', 'quality_ears': '3', 'quality_hair': '3', 'quality_neck': '3', 'facial_hair': '0.0', 'notes': 'mouth', 'race_common': 'black', 'gender_common': 'man'}",,,,,,,,,,,,,,,,,,,,,,,,,,,,,,,,,,,,,,,,,,,,,,,,,,,,,,,,,,,,
23,6275977c1a371c538416d1eb,Chrome,2.0,main_task_2,0.0,3.0,chris,"5/6/2022, 2:47:40 PM",cwrleqd2sft9acsfwuho,0.0-44.0,pilot_sona_afc2,39.0,man,040,2.0,0.8518031239509583,black,50L,D,3486.0,"['../stimuli/version1_gray_lm/id081_25R_U.png', '../stimuli/version1_gray_lm/id081_00C_C.png', '../stimuli/version1_gray_lm/id040_50L_D.png']",124465.0,0.0,49.0,21.0,encoding,man,081,"[0, 1]","[0.834052562713623, 0.8563134670257568]",black,"['25R', '00C']","['U', 'C']",,"{'muct_id': '55', 'lighting': 'r', 'race_guess': 'b', 'gender_guess': 'm', 'quality': '3', 'quality_eyes': '3', 'quality_mouth': '3', 'quality_ears': '3', 'quality_hair': '3', 'quality_neck': '3', 'facial_hair': '3.0', 'notes': 'beard', 'race_common': 'black', 'gender_common': 'man'}","{'muct_id': '241', 'lighting': 't', 'race_guess': 'u', 'gender_guess': 'm', 'quality': '3', 'quality_eyes': '3', 'quality_mouth': '3', 'quality_ears': '3', 'quality_hair': '3', 'quality_neck': '3', 'facial_hair': '1.0', 'notes': 'mouth', 'race_common': 'black', 'gender_common': 'man'}",,,,,,,,,,,,,,,,,,,,,,,,,,,,,,,,,,,,,,,,,,,,,,,,,,,,,,,,,,,,
24,627597811a371c538416d1ec,Chrome,1.0,main_task_2,1.0,1.0,chris,"5/6/2022, 2:47:44 PM",cwrleqd2sft9acsfwuho,0.0-46.0,pilot_sona_afc2,37.0,man,104,0.0,0.8687484264373779,white,00C,C,4226.0,"['../stimuli/version1_gray_lm/id104_00C_C.png', '../stimuli/version1_gray_lm/id061_25R_U.png', '../stimuli/version1_gray_lm/id061_50L_D.png']",129088.0,0.0,51.0,22.0,encoding,man,061,"[1, 2]","[0.8407583832740784, 0.8137534856796265]",white,"['25R', '50L']","['U', 'D']",,"{'muct_id': '287', 'lighting': 't', 'race_guess': 'w', 'gender_guess': 'm', 'quality': '3', 'quality_eyes': '3', 'quality_mouth': '3', 'quality_ears': '3', 'quality_hair': '3', 'quality_neck': '3', 'facial_hair': '2.0', 'notes': None, 'race_common': 'white', 'gender_common': 'man'}","{'muct_id': '89', 'lighting': 'r', 'race_guess': 'w', 'gender_guess': 'm', 'quality': '3', 'quality_eyes': '3', 'quality_mouth': '3', 'quality_ears': '3', 'quality_hair': '3', 'quality_neck': '3', 'facial_hair': '2.0', 'notes': None, 'race_common': 'white', 'gender_common': 'man'}",,,,,,,,,,,,,,,,,,,,,,,,,,,,,,,,,,,,,,,,,,,,,,,,,,,,,,,,,,,,
25,627597851a371c538416d1ed,Chrome,2.0,main_task_2,1.0,2.0,chris,"5/6/2022, 2:47:48 PM",cwrleqd2sft9acsfwuho,0.0-48.0,pilot_sona_afc2,39.0,man,044,1.0,0.7936413288116455,white,25R,C,4010.0,"['../stimuli/version1_gray_lm/id002_50L_U.png', '../stimuli/version1_gray_lm/id044_25R_C.png', '../stimuli/version1_gray_lm/id002_00C_D.png']",133398.0,0.0,53.0,23.0,encoding,man,002,"[0, 2]","[0.7777698636054993, 0.8529975414276123]",white,"['50L', '00C']","['U', 'D']",,"{'muct_id': '60', 'lighting': 's', 'race_guess': 'u', 'gender_guess': 'm', 'quality': '3', 'quality_eyes': '3', 'quality_mouth': '3', 'quality_ears': '3', 'quality_hair': '3', 'quality_neck': '3', 'facial_hair': '2.0', 'notes': None, 'race_common': 'white', 'gender_common': 'man'}","{'muct_id': '2', 'lighting': 'r', 'race_guess': 'w', 'gender_guess': 'm', 'quality': '3', 'quality_eyes': '3', 'quality_mouth': '3', 'quality_ears': '3', 'quality_hair': '3', 'quality_neck': '3', 'facial_hair': '2.0', 'notes': 'eyes', 'race_common': 'white', 'gender_common': 'man'}",,,,,,,,,,,,,,,,,,,,,,,,,,,,,,,,,,,,,,,,,,,,,,,,,,,,,,,,,,,,
26,6275978a1a371c538416d1ee,Chrome,3.0,main_task_2,1.0,3.0,chris,"5/6/2022, 2:47:53 PM",cwrleqd2sft9acsfwuho,0.0-50.0,pilot_sona_afc2,40.0,woman,022,2.0,0.8492570519447327,black,00C,D,3998.0,"['../stimuli/version1_gray_lm/id046_25R_U.png', '../stimuli/version1_gray_lm/id046_50L_C.png', '../stimuli/version1_gray_lm/id022_00C_D.png']",137708.0,0.0,55.0,24.0,encoding,woman,046,"[0, 1]","[0.7855559587478638, 0.8463736176490784]",black,"['25R', '50L']","['U', 'C']",,"{'muct_id': '26', 'lighting': 'q', 'race_guess': 'b', 'gender_guess': 'w', 'quality': '3', 'quality_eyes': '3', 'quality_mouth': '3', 'quality_ears': '3', 'quality_hair': '3', 'quality_neck': '3', 'facial_hair': '0.0', 'notes': 'earrings', 'race_common': 'black', 'gender_common': 'woman'}","{'muct_id': '63', 'lighting': 'q', 'race_guess': 'i', 'gender_guess': 'w', 'quality': '3', 'quality_eyes': '3', 'quality_mouth': '3', 'quality_ears': '3', 'quality_hair': '3', 'quality_neck': '3', 'facial_hair': '0.0', 'notes': None, 'race_common': 'black', 'gender_common': 'woman'}",,,,,,,,,,,,,,,,,,,,,,,,,,,,,,,,,,,,,,,,,,,,,,,,,,,,,,,,,,,,
27,6275978d1a371c538416d1ef,Chrome,1.0,main_task_2,0.0,3.0,chris,"5/6/2022, 2:47:56 PM",cwrleqd2sft9acsfwuho,0.0-52.0,pilot_sona_afc2,37.0,man,122,2.0,0.8074527978897095,black,50R,C,3165.0,"['../stimuli/version1_gray_lm/id112_00C_D.png', '../stimuli/version1_gray_lm/id112_25L_U.png', '../stimuli/version1_gray_lm/id122_50R_C.png']",141297.0,0.0,57.0,25.0,encoding,man,112,"[0, 1]","[0.8542174696922302, 0.7428757548332214]",black,"['00C', '25L']","['D', 'U']",,"{'muct_id': '425', 'lighting': 'x', 'race_guess': 'b', 'gender_guess': 'm', 'quality': '3', 'quality_eyes': '3', 'quality_mouth': '3', 'quality_ears': '3', 'quality_hair': '3', 'quality_neck': '3', 'facial_hair': '2.0', 'notes': None, 'race_common': 'black', 'gender_common': 'man'}","{'muct_id': '406', 'lighting': 'w', 'race_guess': 'b', 'gender_guess': 'm', 'quality': '3', 'quality_eyes': '3', 'quality_mouth': '3', 'quality_ears': '3', 'quality_hair': '3', 'quality_neck': '3', 'facial_hair': '1.0', 'notes': None, 'race_common': 'black', 'gender_common': 'man'}",,,,,,,,,,,,,,,,,,,,,,,,,,,,,,,,,,,,,,,,,,,,,,,,,,,,,,,,,,,,
28,627597901a371c538416d1f0,Chrome,2.0,main_task_2,1.0,2.0,chris,"5/6/2022, 2:47:59 PM",cwrleqd2sft9acsfwuho,0.0-54.0,pilot_sona_afc2,39.0,man,116,1.0,0.8697882890701294,white,00C,D,2368.0,"['../stimuli/version1_gray_lm/id146_50R_C.png', '../stimuli/version1_gray_lm/id116_00C_D.png', '../stimuli/version1_gray_lm/id146_25L_U.png']",144017.0,0.0,59.0,26.0,encoding,man,146,"[0, 2]","[0.8114911317825317, 0.7629464268684387]",white,"['50R', '25L']","['C', 'U']",,"{'muct_id': '414', 'lighting': 'w', 'race_guess': 'w', 'gender_guess': 'm', 'quality': '3', 'quality_eyes': '3', 'quality_mouth': '3', 'quality_ears': '3', 'quality_hair': '3', 'quality_neck': '3', 'facial_hair': '0.0', 'notes': None, 'race_common': 'white', 'gender_common': 'man'}","{'muct_id': '254', 'lighting': 'v', 'race_guess': 'w', 'gender_guess': 'm', 'quality': '2', 'quality_eyes': '2', 'quality_mouth': '3', 'quality_ears': '3', 'quality_hair': '2', 'quality_neck': '3', 'facial_hair': '0.0', 'notes': 'hair', 'race_common': 'white', 'gender_common': 'man'}",,,,,,,,,,,,,,,,,,,,,,,,,,,,,,,,,,,,,,,,,,,,,,,,,,,,,,,,,,,,
29,627597951a371c538416d1f1,Chrome,1.0,main_task_2,1.0,1.0,chris,"5/6/2022, 2:48:04 PM",cwrleqd2sft9acsfwuho,0.0-56.0,pilot_sona_afc2,37.0,woman,125,0.0,0.8855489492416382,white,00C,U,4636.0,"['../stimuli/version1_gray_lm/id125_00C_U.png', '../stimuli/version1_gray_lm/id148_25L_C.png', '../stimuli/version1_gray_lm/id148_25R_D.png']",148908.0,0.0,61.0,27.0,encoding,woman,148,"[1, 2]","[0.8130893111228943, 0.8661385178565979]",white,"['25L', '25R']","['C', 'D']",,"{'muct_id': '433', 'lighting': 'x', 'race_guess': 'w', 'gender_guess': 'w', 'quality': '3', 'quality_eyes': '3', 'quality_mouth': '3', 'quality_ears': '3', 'quality_hair': '3', 'quality_neck': '3', 'facial_hair': '0.0', 'notes': None, 'race_common': 'white', 'gender_common': 'woman'}","{'muct_id': '415', 'lighting': 'w', 'race_guess': 'w', 'gender_guess': 'w', 'quality': '3', 'quality_eyes': '3', 'quality_mouth': '3', 'quality_ears': '3', 'quality_hair': '3', 'quality_neck': '3', 'facial_hair': '0.0', 'notes': None, 'race_common': 'white', 'gender_common': 'woman'}",,,,,,,,,,,,,,,,,,,,,,,,,,,,,,,,,,,,,,,,,,,,,,,,,,,,,,,,,,,,
30,6275979a1a371c538416d1f2,Chrome,2.0,main_task_2,0.0,1.0,chris,"5/6/2022, 2:48:09 PM",cwrleqd2sft9acsfwuho,0.0-58.0,pilot_sona_afc2,39.0,woman,060,0.0,0.8078091740608215,black,50R,C,5062.0,"['../stimuli/version1_gray_lm/id060_50R_C.png', '../stimuli/version1_gray_lm/id140_50L_U.png', '../stimuli/version1_gray_lm/id140_00C_D.png']",154224.0,0.0,63.0,28.0,encoding,woman,140,"[1, 2]","[0.8602523803710938, 0.8531489968299866]",black,"['50L', '00C']","['U', 'D']",,"{'muct_id': '88', 'lighting': 'q', 'race_guess': 'b', 'gender_guess': 'w', 'quality': '3', 'quality_eyes': '3', 'quality_mouth': '3', 'quality_ears': '3', 'quality_hair': '3', 'quality_neck': '3', 'facial_hair': '0.0', 'notes': 'earrings', 'race_common': 'black', 'gender_common': 'woman'}","{'muct_id': '624', 'lighting': 'y', 'race_guess': 'b', 'gender_guess': 'w', 'quality': '3', 'quality_eyes': '3', 'quality_mouth': '3', 'quality_ears': '3', 'quality_hair': '3', 'quality_neck': '3', 'facial_hair': '0.0', 'notes': 'headband, earring', 'race_common': 'black', 'gender_common': 'woman'}",,,,,,,,,,,,,,,,,,,,,,,,,,,,,,,,,,,,,,,,,,,,,,,,,,,,,,,,,,,,
31,6275979d1a371c538416d1f3,Chrome,3.0,main_task_2,0.0,1.0,chris,"5/6/2022, 2:48:12 PM",cwrleqd2sft9acsfwuho,0.0-60.0,pilot_sona_afc2,40.0,woman,120,0.0,0.8112473487854004,black,25L,C,2196.0,"['../stimuli/version1_gray_lm/id120_25L_C.png', '../stimuli/version1_gray_lm/id111_00C_U.png', '../stimuli/version1_gray_lm/id111_50R_D.png']",157158.0,0.0,65.0,29.0,encoding,woman,111,"[1, 2]","[0.8701693415641785, 0.833860456943512]",black,"['00C', '50R']","['U', 'D']",,"{'muct_id': '421', 'lighting': 'x', 'race_guess': 'b', 'gender_guess': 'w', 'quality': '3', 'quality_eyes': '3', 'quality_mouth': '3', 'quality_ears': '3', 'quality_hair': '3', 'quality_neck': '3', 'facial_hair': '0.0', 'notes': None, 'race_common': 'black', 'gender_common': 'woman'}","{'muct_id': '405', 'lighting': 'w', 'race_guess': 'b', 'gender_guess': 'w', 'quality': '3', 'quality_eyes': '3', 'quality_mouth': '3', 'quality_ears': '3', 'quality_hair': '3', 'quality_neck': '3', 'facial_hair': '0.0', 'notes': 'hair earrings', 'race_common': 'black', 'gender_common': 'woman'}",,,,,,,,,,,,,,,,,,,,,,,,,,,,,,,,,,,,,,,,,,,,,,,,,,,,,,,,,,,,
32,627597a71a371c538416d1f4,Chrome,1.0,main_task_2,1.0,1.0,chris,"5/6/2022, 2:48:22 PM",cwrleqd2sft9acsfwuho,0.0-62.0,pilot_sona_afc2,37.0,man,047,0.0,0.7917755246162415,white,25L,D,9499.0,"['../stimuli/version1_gray_lm/id047_25L_D.png', '../stimuli/version1_gray_lm/id100_25R_C.png', '../stimuli/version1_gray_lm/id100_00C_U.png']",167325.0,0.0,67.0,30.0,encoding,man,100,"[1, 2]","[0.8036725521087646, 0.7901581525802612]",white,"['25R', '00C']","['C', 'U']",,"{'muct_id': '64', 'lighting': 'q', 'race_guess': 'w', 'gender_guess': 'm', 'quality': '3', 'quality_eyes': '3', 'quality_mouth': '3', 'quality_ears': '3', 'quality_hair': '3', 'quality_neck': '3', 'facial_hair': '0.0', 'notes': None, 'race_common': 'white', 'gender_common': 'man'}","{'muct_id': '280', 'lighting': 'u', 'race_guess': 'w', 'gender_guess': 'm', 'quality': '3', 'quality_eyes': '3', 'quality_mouth': '3', 'quality_ears': '3', 'quality_hair': '3', 'quality_neck': '3', 'facial_hair': '0.0', 'notes': None, 'race_common': 'white', 'gender_common': 'man'}",,,,,,,,,,,,,,,,,,,,,,,,,,,,,,,,,,,,,,,,,,,,,,,,,,,,,,,,,,,,
33,627597aa1a371c538416d1f5,Chrome,1.0,main_task_2,1.0,1.0,chris,"5/6/2022, 2:48:25 PM",cwrleqd2sft9acsfwuho,0.0-64.0,pilot_sona_afc2,37.0,man,063,0.0,0.8642292022705078,white,00C,D,2281.0,"['../stimuli/version1_gray_lm/id063_00C_D.png', '../stimuli/version1_gray_lm/id093_50L_C.png', '../stimuli/version1_gray_lm/id093_50R_U.png']",170102.0,0.0,69.0,31.0,encoding,man,093,"[1, 2]","[0.8024674654006958, 0.8605095744132996]",white,"['50L', '50R']","['C', 'U']",,"{'muct_id': '203', 'lighting': 'u', 'race_guess': 'i', 'gender_guess': 'm', 'quality': '2', 'quality_eyes': '2', 'quality_mouth': '3', 'quality_ears': '3', 'quality_hair': '3', 'quality_neck': '3', 'facial_hair': '2.0', 'notes': 'mouth', 'race_common': 'white', 'gender_common': 'man'}","{'muct_id': '263', 'lighting': 'u', 'race_guess': 'w', 'gender_guess': 'm', 'quality': '3', 'quality_eyes': '3', 'quality_mouth': '3', 'quality_ears': '3', 'quality_hair': '3', 'quality_neck': '3', 'facial_hair': '2.0', 'notes': None, 'race_common': 'white', 'gender_common': 'man'}",,,,,,,,,,,,,,,,,,,,,,,,,,,,,,,,,,,,,,,,,,,,,,,,,,,,,,,,,,,,
34,627597b01a371c538416d1f6,Chrome,2.0,main_task_2,1.0,2.0,chris,"5/6/2022, 2:48:31 PM",cwrleqd2sft9acsfwuho,0.0-66.0,pilot_sona_afc2,39.0,man,137,1.0,0.8485629558563232,black,00C,C,5104.0,"['../stimuli/version1_gray_lm/id036_50L_U.png', '../stimuli/version1_gray_lm/id137_00C_C.png', '../stimuli/version1_gray_lm/id036_25R_D.png']",175760.0,0.0,71.0,32.0,encoding,man,036,"[0, 2]","[0.8464226722717285, 0.8179123997688293]",black,"['50L', '25R']","['U', 'D']",,"{'muct_id': '617', 'lighting': 'y', 'race_guess': 'b', 'gender_guess': 'w', 'quality': '3', 'quality_eyes': '3', 'quality_mouth': '3', 'quality_ears': '3', 'quality_hair': '3', 'quality_neck': '3', 'facial_hair': '0.0', 'notes': 'mouth', 'race_common': 'black', 'gender_common': 'man'}","{'muct_id': '47', 'lighting': 'q', 'race_guess': 'b', 'gender_guess': 'u', 'quality': '3', 'quality_eyes': '3', 'quality_mouth': '3', 'quality_ears': '3', 'quality_hair': '3', 'quality_neck': '3', 'facial_hair': '0.0', 'notes': None, 'race_common': 'black', 'gender_common': 'man'}",,,,,,,,,,,,,,,,,,,,,,,,,,,,,,,,,,,,,,,,,,,,,,,,,,,,,,,,,,,,
35,627597b71a371c538416d1f7,Chrome,1.0,main_task_2,0.0,3.0,chris,"5/6/2022, 2:48:38 PM",cwrleqd2sft9acsfwuho,0.0-68.0,pilot_sona_afc2,37.0,man,156,2.0,0.8224635124206543,white,50R,C,7102.0,"['../stimuli/version1_gray_lm/id115_50L_U.png', '../stimuli/version1_gray_lm/id115_00C_D.png', '../stimuli/version1_gray_lm/id156_50R_C.png']",183148.0,0.0,73.0,33.0,encoding,man,115,"[0, 1]","[0.7834216356277466, 0.9003006219863892]",white,"['50L', '00C']","['U', 'D']",,"{'muct_id': '258', 'lighting': 'u', 'race_guess': 'w', 'gender_guess': 'm', 'quality': '2', 'quality_eyes': '3', 'quality_mouth': '3', 'quality_ears': '3', 'quality_hair': '2', 'quality_neck': '3', 'facial_hair': '0.0', 'notes': 'hair', 'race_common': 'white', 'gender_common': 'man'}","{'muct_id': '412', 'lighting': 'x', 'race_guess': 'w', 'gender_guess': 'm', 'quality': '3', 'quality_eyes': '3', 'quality_mouth': '3', 'quality_ears': '3', 'quality_hair': '3', 'quality_neck': '3', 'facial_hair': '0.0', 'notes': None, 'race_common': 'white', 'gender_common': 'man'}",,,,,,,,,,,,,,,,,,,,,,,,,,,,,,,,,,,,,,,,,,,,,,,,,,,,,,,,,,,,
36,627597ba1a371c538416d1f8,Chrome,3.0,main_task_2,1.0,3.0,chris,"5/6/2022, 2:48:41 PM",cwrleqd2sft9acsfwuho,0.0-70.0,pilot_sona_afc2,40.0,man,091,2.0,0.8543884754180908,black,50R,U,2817.0,"['../stimuli/version1_gray_lm/id105_50L_C.png', '../stimuli/version1_gray_lm/id105_00C_D.png', '../stimuli/version1_gray_lm/id091_50R_U.png']",186392.0,0.0,75.0,34.0,encoding,man,105,"[0, 1]","[0.8399209380149841, 0.8777240514755249]",black,"['50L', '00C']","['C', 'D']",,"{'muct_id': '260', 'lighting': 't', 'race_guess': 'b', 'gender_guess': 'm', 'quality': '3', 'quality_eyes': '3', 'quality_mouth': '3', 'quality_ears': '3', 'quality_hair': '3', 'quality_neck': '3', 'facial_hair': '4.0', 'notes': 'beard', 'race_common': 'black', 'gender_common': 'man'}","{'muct_id': '290', 'lighting': 't', 'race_guess': 'b', 'gender_guess': 'm', 'quality': '3', 'quality_eyes': '3', 'quality_mouth': '3', 'quality_ears': '3', 'quality_hair': '3', 'quality_neck': '3', 'facial_hair': '2.0', 'notes': None, 'race_common': 'black', 'gender_common': 'man'}",,,,,,,,,,,,,,,,,,,,,,,,,,,,,,,,,,,,,,,,,,,,,,,,,,,,,,,,,,,,
37,627597bc1a371c538416d1f9,Chrome,1.0,main_task_2,1.0,1.0,chris,"5/6/2022, 2:48:44 PM",cwrleqd2sft9acsfwuho,0.0-72.0,pilot_sona_afc2,37.0,man,021,0.0,0.8625242114067078,black,00C,D,1916.0,"['../stimuli/version1_gray_lm/id021_00C_D.png', '../stimuli/version1_gray_lm/id132_25L_C.png', '../stimuli/version1_gray_lm/id132_25R_U.png']",188521.0,0.0,77.0,35.0,encoding,man,132,"[1, 2]","[0.8329433798789978, 0.8107916712760925]",black,"['25L', '25R']","['C', 'U']",,"{'muct_id': '25', 'lighting': 'r', 'race_guess': 'b', 'gender_guess': 'm', 'quality': '3', 'quality_eyes': '3', 'quality_mouth': '3', 'quality_ears': '3', 'quality_hair': '3', 'quality_neck': '3', 'facial_hair': '2.0', 'notes': None, 'race_common': 'black', 'gender_common': 'man'}","{'muct_id': '450', 'lighting': 'w', 'race_guess': 'b', 'gender_guess': 'm', 'quality': '3', 'quality_eyes': '3', 'quality_mouth': '3', 'quality_ears': '3', 'quality_hair': '3', 'quality_neck': '3', 'facial_hair': '4.0', 'notes': 'mouth', 'race_common': 'black', 'gender_common': 'man'}",,,,,,,,,,,,,,,,,,,,,,,,,,,,,,,,,,,,,,,,,,,,,,,,,,,,,,,,,,,,
38,627597be1a371c538416d1fa,Chrome,3.0,main_task_2,1.0,3.0,chris,"5/6/2022, 2:48:45 PM",cwrleqd2sft9acsfwuho,0.0-74.0,pilot_sona_afc2,40.0,woman,076,2.0,0.8417189121246338,white,25R,U,1402.0,"['../stimuli/version1_gray_lm/id018_00C_C.png', '../stimuli/version1_gray_lm/id018_50L_D.png', '../stimuli/version1_gray_lm/id076_25R_U.png']",190305.0,0.0,79.0,36.0,encoding,woman,018,"[0, 1]","[0.8332737684249878, 0.8100258111953735]",white,"['00C', '50L']","['C', 'D']",,"{'muct_id': '233', 'lighting': 'u', 'race_guess': 'w', 'gender_guess': 'w', 'quality': '3', 'quality_eyes': '3', 'quality_mouth': '3', 'quality_ears': '3', 'quality_hair': '3', 'quality_neck': '3', 'facial_hair': '0.0', 'notes': 'earrings', 'race_common': 'white', 'gender_common': 'woman'}","{'muct_id': '21', 'lighting': 'q', 'race_guess': 'w', 'gender_guess': 'w', 'quality': '3', 'quality_eyes': '3', 'quality_mouth': '3', 'quality_ears': '3', 'quality_hair': '3', 'quality_neck': '3', 'facial_hair': '0.0', 'notes': None, 'race_common': 'white', 'gender_common': 'woman'}",,,,,,,,,,,,,,,,,,,,,,,,,,,,,,,,,,,,,,,,,,,,,,,,,,,,,,,,,,,,
39,627597c51a371c538416d1fb,Chrome,1.0,main_task_2,1.0,1.0,chris,"5/6/2022, 2:48:52 PM",cwrleqd2sft9acsfwuho,0.0-76.0,pilot_sona_afc2,37.0,man,074,0.0,0.8224310278892517,white,25R,D,6350.0,"['../stimuli/version1_gray_lm/id074_25R_D.png', '../stimuli/version1_gray_lm/id073_50L_C.png', '../stimuli/version1_gray_lm/id073_00C_U.png']",196898.0,0.0,81.0,37.0,encoding,man,073,"[1, 2]","[0.8215176463127136, 0.8355368375778198]",white,"['50L', '00C']","['C', 'U']",,"{'muct_id': '229', 'lighting': 't', 'race_guess': 'w', 'gender_guess': 'm', 'quality': '3', 'quality_eyes': '3', 'quality_mouth': '3', 'quality_ears': '3', 'quality_hair': '3', 'quality_neck': '3', 'facial_hair': '2.0', 'notes': 'mouth', 'race_common': 'white', 'gender_common': 'man'}","{'muct_id': '225', 'lighting': 'u', 'race_guess': 'w', 'gender_guess': 'm', 'quality': '3', 'quality_eyes': '3', 'quality_mouth': '3', 'quality_ears': '3', 'quality_hair': '3', 'quality_neck': '3', 'facial_hair': '2.0', 'notes': None, 'race_common': 'white', 'gender_common': 'man'}",,,,,,,,,,,,,,,,,,,,,,,,,,,,,,,,,,,,,,,,,,,,,,,,,,,,,,,,,,,,
40,627597c81a371c538416d1fc,Chrome,3.0,main_task_2,1.0,3.0,chris,"5/6/2022, 2:48:55 PM",cwrleqd2sft9acsfwuho,0.0-78.0,pilot_sona_afc2,40.0,man,139,2.0,0.8124844431877136,black,50L,U,2766.0,"['../stimuli/version1_gray_lm/id004_25R_D.png', '../stimuli/version1_gray_lm/id004_00C_C.png', '../stimuli/version1_gray_lm/id139_50L_U.png']",199934.0,0.0,83.0,38.0,encoding,man,004,"[0, 1]","[0.8541693687438965, 0.8468521237373352]",black,"['25R', '00C']","['D', 'C']",,"{'muct_id': '623', 'lighting': 'y', 'race_guess': 'b', 'gender_guess': 'm', 'quality': '3', 'quality_eyes': '3', 'quality_mouth': '3', 'quality_ears': '3', 'quality_hair': '3', 'quality_neck': '3', 'facial_hair': '1.0', 'notes': 'mouth', 'race_common': 'black', 'gender_common': 'man'}","{'muct_id': '4', 'lighting': 'q', 'race_guess': 'b', 'gender_guess': 'm', 'quality': '3', 'quality_eyes': '3', 'quality_mouth': '3', 'quality_ears': '3', 'quality_hair': '3', 'quality_neck': '3', 'facial_hair': '2.0', 'notes': None, 'race_common': 'black', 'gender_common': 'man'}",,,,,,,,,,,,,,,,,,,,,,,,,,,,,,,,,,,,,,,,,,,,,,,,,,,,,,,,,,,,
41,627597cf1a371c538416d1fd,Chrome,2.0,main_task_2,1.0,2.0,chris,"5/6/2022, 2:49:02 PM",cwrleqd2sft9acsfwuho,0.0-80.0,pilot_sona_afc2,39.0,man,113,1.0,0.8400749564170837,black,50R,U,6622.0,"['../stimuli/version1_gray_lm/id028_50L_C.png', '../stimuli/version1_gray_lm/id113_50R_U.png', '../stimuli/version1_gray_lm/id028_00C_D.png']",206768.0,0.0,85.0,39.0,encoding,man,028,"[0, 2]","[0.852541983127594, 0.8634780645370483]",black,"['50L', '00C']","['C', 'D']",,"{'muct_id': '407', 'lighting': 'x', 'race_guess': 'u', 'gender_guess': 'm', 'quality': '3', 'quality_eyes': '3', 'quality_mouth': '3', 'quality_ears': '3', 'quality_hair': '3', 'quality_neck': '3', 'facial_hair': '3.0', 'notes': 'beard', 'race_common': 'black', 'gender_common': 'man'}","{'muct_id': '38', 'lighting': 'q', 'race_guess': 'b', 'gender_guess': 'm', 'quality': '3', 'quality_eyes': '3', 'quality_mouth': '3', 'quality_ears': '3', 'quality_hair': '3', 'quality_neck': '3', 'facial_hair': '2.0', 'notes': None, 'race_common': 'black', 'gender_common': 'man'}",,,,,,,,,,,,,,,,,,,,,,,,,,,,,,,,,,,,,,,,,,,,,,,,,,,,,,,,,,,,
42,627597d21a371c538416d1fe,Chrome,1.0,main_task_2,1.0,1.0,chris,"5/6/2022, 2:49:05 PM",cwrleqd2sft9acsfwuho,0.0-82.0,pilot_sona_afc2,37.0,man,145,0.0,0.820552408695221,white,00C,U,3203.0,"['../stimuli/version1_gray_lm/id145_00C_U.png', '../stimuli/version1_gray_lm/id032_25L_C.png', '../stimuli/version1_gray_lm/id032_25R_D.png']",210225.0,0.0,87.0,40.0,encoding,man,032,"[1, 2]","[0.8447374701499939, 0.8583691120147705]",white,"['25L', '25R']","['C', 'D']",,"{'muct_id': '230', 'lighting': 'u', 'race_guess': 'w', 'gender_guess': 'm', 'quality': '3', 'quality_eyes': '3', 'quality_mouth': '3', 'quality_ears': '3', 'quality_hair': '3', 'quality_neck': '3', 'facial_hair': '0.0', 'notes': 'hair', 'race_common': 'white', 'gender_common': 'man'}","{'muct_id': '43', 'lighting': 'q', 'race_guess': 'w', 'gender_guess': 'm', 'quality': '3', 'quality_eyes': '3', 'quality_mouth': '3', 'quality_ears': '3', 'quality_hair': '3', 'quality_neck': '3', 'facial_hair': '0.0', 'notes': None, 'race_common': 'white', 'gender_common': 'man'}",,,,,,,,,,,,,,,,,,,,,,,,,,,,,,,,,,,,,,,,,,,,,,,,,,,,,,,,,,,,
43,627597d51a371c538416d1ff,Chrome,,main_task_2,,,chris,"5/6/2022, 2:49:09 PM",,0.0-84.0,pilot_sona_afc2,,,,,,,,,2541.4000000953674,"<p style='font-size: 150%'><b>You have finished Part 1!</b></p><p>On this section, you averaged <b>75% accuracy</b>.</p><p>Click 'Next' to continue to Part 2.</p>",213589.0,,89.0,,bonus_update,,,,,,,,,,,0,encoding,0.0,,,,,,,,,,,,,,,,,,,,,,,,,,,,,,,,,,,,,,,,,,,,,,,,,,,,,,,,,
44,627597ee1a371c538416d200,Chrome,,main_task_2,0.0,2.0,chris,"5/6/2022, 2:49:33 PM",cwrleqd2sft9acsfwuho,0.0-86.0-0.0,pilot_sona_afc2,,,,2846.0,,,,,0.0,"['../stimuli/objectome/1633.jpeg', '../stimuli/objectome/2846.jpeg', '../stimuli/objectome/1634.jpeg']",237738.0,1.0,91.0,1.0,filler,,,,,,,,,,,,,,planes,_05_future,planes,mig29,within,"{'1': None, '2': None, '3': None}",planes,"[1633, 1634]",_05_future,V3,,,,,,,,,,,,,,,,,,,,,,,,,,,,,,,,,,,,,,,,,,,,,,,
45,627597ef1a371c538416d201,Chrome,1.0,main_task_2,0.0,2.0,chris,"5/6/2022, 2:49:35 PM",cwrleqd2sft9acsfwuho,0.0-86.1-0.1,pilot_sona_afc2,37,,,2846.0,,,,,610.0,"['../stimuli/objectome/1633.jpeg', '../stimuli/objectome/2846.jpeg', '../stimuli/objectome/1634.jpeg']",239462.0,0.0,93.0,2.0,filler,,,,,,,,,,,,,,planes,_05_future,planes,mig29,within,"{'1': None, '2': None, '3': None}",planes,"[1633, 1634]",_05_future,V3,,,,,,,,,,,,,,,,,,,,,,,,,,,,,,,,,,,,,,,,,,,,,,,
46,627597f11a371c538416d202,Chrome,3.0,main_task_2,0.0,2.0,chris,"5/6/2022, 2:49:36 PM",cwrleqd2sft9acsfwuho,0.0-86.2-0.2,pilot_sona_afc2,40,,,2846.0,,,,,637.0,"['../stimuli/objectome/1633.jpeg', '../stimuli/objectome/2846.jpeg', '../stimuli/objectome/1634.jpeg']",240920.0,0.0,95.0,3.0,filler,,,,,,,,,,,,,,planes,_05_future,planes,mig29,within,"{'1': None, '2': None, '3': None}",planes,"[1633, 1634]",_05_future,V3,,,,,,,,,,,,,,,,,,,,,,,,,,,,,,,,,,,,,,,,,,,,,,,
47,627597f41a371c538416d203,Chrome,2.0,main_task_2,1.0,2.0,chris,"5/6/2022, 2:49:40 PM",cwrleqd2sft9acsfwuho,0.0-86.3-0.3,pilot_sona_afc2,39,,,2846.0,,,,,2991.0,"['../stimuli/objectome/1633.jpeg', '../stimuli/objectome/2846.jpeg', '../stimuli/objectome/1634.jpeg']",244564.0,0.0,97.0,4.0,filler,,,,,,,,,,,,,,planes,mig29,planes,mig29,within,"{'1': None, '2': None, '3': None}",planes,"[1633, 1634]",_05_future,V3,,,,,,,,,,,,,,,,,,,,,,,,,,,,,,,,,,,,,,,,,,,,,,,
48,627597f91a371c538416d204,Chrome,3.0,main_task_2,1.0,3.0,chris,"5/6/2022, 2:49:44 PM",cwrleqd2sft9acsfwuho,0.0-87.0-0.0,pilot_sona_afc2,40,,,1486.0,,,,,3614.0,"['../stimuli/objectome/2863.jpeg', '../stimuli/objectome/2845.jpeg', '../stimuli/objectome/1486.jpeg']",248802.0,0.0,99.0,5.0,filler,,,,,,,,,,,,,,planes,_01_Airliner_2jetEngines,planes,_01_Airliner_2jetEngines,within,"{'1': None, '2': None, '3': None}",planes,"[2863, 2845]",mig29,V3,,,,,,,,,,,,,,,,,,,,,,,,,,,,,,,,,,,,,,,,,,,,,,,
49,627597fc1a371c538416d205,Chrome,2.0,main_task_2,1.0,2.0,chris,"5/6/2022, 2:49:48 PM",cwrleqd2sft9acsfwuho,0.0-88.0-0.0,pilot_sona_afc2,39,,,1270.0,,,,,3059.0,"['../stimuli/objectome/1466.jpeg', '../stimuli/objectome/1270.jpeg', '../stimuli/objectome/1443.jpeg']",252419.0,0.0,101.0,6.0,filler,,,,,,,,,,,,,,chairs,_001,chairs,_001,within,"{'1': None, '2': None, '3': None}",chairs,"[1466, 1443]",_014,V3,,,,,,,,,,,,,,,,,,,,,,,,,,,,,,,,,,,,,,,,,,,,,,,
50,627598021a371c538416d206,Chrome,3.0,main_task_2,0.0,2.0,chris,"5/6/2022, 2:49:54 PM",cwrleqd2sft9acsfwuho,0.0-90.0,pilot_sona_afc2,40,,,1435.0,,,,,2525.0,"['../stimuli/objectome/1574.jpeg', '../stimuli/objectome/1435.jpeg', '../stimuli/objectome/1576.jpeg']",258456.0,0.0,104.0,7.0,filler,,,,,,,,,,,,,,chairs,_033,chairs,_011,within,"{'1': None, '2': None, '3': None}",chairs,"[1574, 1576]",_033,V3,,,,,,,,,,,,,,,,,,,,,,,,,,,,,,,,,,,,,,,,,,,,,,,
51,627598051a371c538416d207,Chrome,3.0,main_task_2,0.0,2.0,chris,"5/6/2022, 2:49:56 PM",cwrleqd2sft9acsfwuho,0.0-92.0,pilot_sona_afc2,40,,,994.0,,,,,2042.0,"['../stimuli/objectome/2788.jpeg', '../stimuli/objectome/994.jpeg', '../stimuli/objectome/2792.jpeg']",260784.0,0.0,106.0,8.0,filler,,,,,,,,,,,,,,animals,hedgehog,animals,LIONESS,within,"{'1': None, '2': None, '3': None}",animals,"[2788, 2792]",hedgehog,V3,,,,,,,,,,,,,,,,,,,,,,,,,,,,,,,,,,,,,,,,,,,,,,,
52,627598071a371c538416d208,Chrome,3.0,main_task_2,0.0,2.0,chris,"5/6/2022, 2:49:58 PM",cwrleqd2sft9acsfwuho,0.0-94.0,pilot_sona_afc2,40,,,950.0,,,,,2211.0,"['../stimuli/objectome/960.jpeg', '../stimuli/objectome/950.jpeg', '../stimuli/objectome/974.jpeg']",263250.0,0.0,108.0,9.0,filler,,,,,,,,,,,,,,animals,LIONESS,animals,GORILLA,within,"{'1': None, '2': None, '3': None}",animals,"[960, 974]",LIONESS,V3,,,,,,,,,,,,,,,,,,,,,,,,,,,,,,,,,,,,,,,,,,,,,,,
53,6275980b1a371c538416d209,Chrome,3.0,main_task_2,0.0,2.0,chris,"5/6/2022, 2:50:02 PM",cwrleqd2sft9acsfwuho,0.0-96.0,pilot_sona_afc2,40,,,1489.0,,,,,3700.0,"['../stimuli/objectome/1607.jpeg', '../stimuli/objectome/1489.jpeg', '../stimuli/objectome/1608.jpeg']",267234.0,0.0,110.0,10.0,filler,,,,,,,,,,,,,,planes,_05_future,planes,_01_Airliner_2jetEngines,within,"{'1': None, '2': None, '3': None}",planes,"[1607, 1608]",_05_future,V3,,,,,,,,,,,,,,,,,,,,,,,,,,,,,,,,,,,,,,,,,,,,,,,
54,6275980e1a371c538416d20a,Chrome,3.0,main_task_2,0.0,2.0,chris,"5/6/2022, 2:50:06 PM",cwrleqd2sft9acsfwuho,0.0-98.0,pilot_sona_afc2,40,,,1380.0,,,,,2339.0,"['../stimuli/objectome/1566.jpeg', '../stimuli/objectome/1380.jpeg', '../stimuli/objectome/1576.jpeg']",270508.0,0.0,112.0,11.0,filler,,,,,,,,,,,,,,chairs,_033,chairs,_010,within,"{'1': None, '2': None, '3': None}",chairs,"[1566, 1576]",_033,V3,,,,,,,,,,,,,,,,,,,,,,,,,,,,,,,,,,,,,,,,,,,,,,,
55,627598111a371c538416d20b,Chrome,3.0,main_task_2,0.0,2.0,chris,"5/6/2022, 2:50:08 PM",cwrleqd2sft9acsfwuho,0.0-100.0,pilot_sona_afc2,40,,,2139.0,,,,,2453.0,"['../stimuli/objectome/1232.jpeg', '../stimuli/objectome/2139.jpeg', '../stimuli/objectome/1209.jpeg']",273275.0,0.0,114.0,12.0,filler,,,,,,,,,,,,,,animals,TURTLE_L,animals,blCow,within,"{'1': None, '2': None, '3': None}",animals,"[1232, 1209]",TURTLE_L,V3,,,,,,,,,,,,,,,,,,,,,,,,,,,,,,,,,,,,,,,,,,,,,,,
56,627598141a371c538416d20c,Chrome,3.0,main_task_2,0.0,2.0,chris,"5/6/2022, 2:50:11 PM",cwrleqd2sft9acsfwuho,0.0-102.0,pilot_sona_afc2,40,,,1876.0,,,,,2453.0,"['../stimuli/objectome/1609.jpeg', '../stimuli/objectome/1876.jpeg', '../stimuli/objectome/1613.jpeg']",275939.0,0.0,116.0,13.0,filler,,,,,,,,,,,,,,planes,_05_future,planes,_19_flyingBoat,within,"{'1': None, '2': None, '3': None}",planes,"[1609, 1613]",_05_future,V3,,,,,,,,,,,,,,,,,,,,,,,,,,,,,,,,,,,,,,,,,,,,,,,
57,627598161a371c538416d20d,Chrome,3.0,main_task_2,0.0,2.0,chris,"5/6/2022, 2:50:14 PM",cwrleqd2sft9acsfwuho,0.0-104.0,pilot_sona_afc2,40,,,1550.0,,,,,1954.0,"['../stimuli/objectome/1474.jpeg', '../stimuli/objectome/1550.jpeg', '../stimuli/objectome/1476.jpeg']",278589.0,0.0,118.0,14.0,filler,,,,,,,,,,,,,,chairs,_014,chairs,_031,within,"{'1': None, '2': None, '3': None}",chairs,"[1474, 1476]",_014,V3,,,,,,,,,,,,,,,,,,,,,,,,,,,,,,,,,,,,,,,,,,,,,,,
58,627598181a371c538416d20e,Chrome,1.0,main_task_2,0.0,3.0,chris,"5/6/2022, 2:50:15 PM",cwrleqd2sft9acsfwuho,0.0-106.0,pilot_sona_afc2,37,,,2130.0,,,,,1433.0,"['../stimuli/objectome/971.jpeg', '../stimuli/objectome/977.jpeg', '../stimuli/objectome/2130.jpeg']",280277.0,0.0,120.0,15.0,filler,,,,,,,,,,,,,,animals,LIONESS,animals,blCow,within,"{'1': None, '2': None, '3': None}",animals,"[971, 977]",LIONESS,V3,,,,,,,,,,,,,,,,,,,,,,,,,,,,,,,,,,,,,,,,,,,,,,,
59,6275981a1a371c538416d20f,Chrome,3.0,main_task_2,0.0,2.0,chris,"5/6/2022, 2:50:17 PM",cwrleqd2sft9acsfwuho,0.0-108.0,pilot_sona_afc2,40,,,932.0,,,,,1801.0,"['../stimuli/objectome/2266.jpeg', '../stimuli/objectome/932.jpeg', '../stimuli/objectome/2240.jpeg']",282290.0,0.0,122.0,16.0,filler,,,,,,,,,,,,,,animals,breed_pug,animals,GORILLA,within,"{'1': None, '2': None, '3': None}",animals,"[2266, 2240]",breed_pug,V3,,,,,,,,,,,,,,,,,,,,,,,,,,,,,,,,,,,,,,,,,,,,,,,
60,6275981c1a371c538416d210,Chrome,3.0,main_task_2,0.0,2.0,chris,"5/6/2022, 2:50:19 PM",cwrleqd2sft9acsfwuho,0.0-110.0,pilot_sona_afc2,40,,,1463.0,,,,,1559.0,"['../stimuli/objectome/1583.jpeg', '../stimuli/objectome/1463.jpeg', '../stimuli/objectome/1568.jpeg']",284090.0,0.0,124.0,17.0,filler,,,,,,,,,,,,,,chairs,_033,chairs,_014,within,"{'1': None, '2': None, '3': None}",chairs,"[1583, 1568]",_033,V3,,,,,,,,,,,,,,,,,,,,,,,,,,,,,,,,,,,,,,,,,,,,,,,
61,6275981e1a371c538416d211,Chrome,3.0,main_task_2,0.0,2.0,chris,"5/6/2022, 2:50:21 PM",cwrleqd2sft9acsfwuho,0.0-112.0,pilot_sona_afc2,40,,,1522.0,,,,,1743.0,"['../stimuli/objectome/1450.jpeg', '../stimuli/objectome/1522.jpeg', '../stimuli/objectome/1468.jpeg']",286117.0,0.0,126.0,18.0,filler,,,,,,,,,,,,,,chairs,_014,chairs,_031,within,"{'1': None, '2': None, '3': None}",chairs,"[1450, 1468]",_014,V3,,,,,,,,,,,,,,,,,,,,,,,,,,,,,,,,,,,,,,,,,,,,,,,
62,627598201a371c538416d212,Chrome,1.0,main_task_2,0.0,3.0,chris,"5/6/2022, 2:50:23 PM",cwrleqd2sft9acsfwuho,0.0-114.0,pilot_sona_afc2,37,,,155.0,,,,,1657.0,"['../stimuli/objectome/166.jpeg', '../stimuli/objectome/169.jpeg', '../stimuli/objectome/155.jpeg']",288031.0,0.0,128.0,19.0,filler,,,,,,,,,,,,,,chairs,_004,chairs,_001,within,"{'1': None, '2': None, '3': None}",chairs,"[166, 169]",_004,V0,,,,,,,,,,,,,,,,,,,,,,,,,,,,,,,,,,,,,,,,,,,,,,,
63,627598241a371c538416d213,Chrome,1.0,main_task_2,1.0,1.0,chris,"5/6/2022, 2:50:28 PM",cwrleqd2sft9acsfwuho,0.0-116.0,pilot_sona_afc2,37,,,962.0,,,,,3741.0,"['../stimuli/objectome/962.jpeg', '../stimuli/objectome/1230.jpeg', '../stimuli/objectome/1239.jpeg']",292513.0,0.0,130.0,20.0,filler,,,,,,,,,,,,,,animals,LIONESS,animals,LIONESS,within,"{'1': None, '2': None, '3': None}",animals,"[1230, 1239]",TURTLE_L,V3,,,,,,,,,,,,,,,,,,,,,,,,,,,,,,,,,,,,,,,,,,,,,,,
64,627598271a371c538416d214,Chrome,2.0,main_task_2,1.0,2.0,chris,"5/6/2022, 2:50:30 PM",cwrleqd2sft9acsfwuho,0.0-118.0,pilot_sona_afc2,39,,,1615.0,,,,,1925.0,"['../stimuli/objectome/3019.jpeg', '../stimuli/objectome/1615.jpeg', '../stimuli/objectome/3017.jpeg']",295077.0,0.0,132.0,21.0,filler,,,,,,,,,,,,,,planes,_05_future,planes,_05_future,within,"{'1': None, '2': None, '3': None}",planes,"[3019, 3017]",sopwith,V3,,,,,,,,,,,,,,,,,,,,,,,,,,,,,,,,,,,,,,,,,,,,,,,
65,6275982b1a371c538416d215,Chrome,3.0,main_task_2,1.0,3.0,chris,"5/6/2022, 2:50:34 PM",cwrleqd2sft9acsfwuho,0.0-120.0,pilot_sona_afc2,40,,,2861.0,,,,,3602.0,"['../stimuli/objectome/1853.jpeg', '../stimuli/objectome/1858.jpeg', '../stimuli/objectome/2861.jpeg']",299048.0,0.0,134.0,22.0,filler,,,,,,,,,,,,,,planes,mig29,planes,mig29,within,"{'1': None, '2': None, '3': None}",planes,"[1853, 1858]",_19_flyingBoat,V3,,,,,,,,,,,,,,,,,,,,,,,,,,,,,,,,,,,,,,,,,,,,,,,
66,6275982d1a371c538416d216,Chrome,1.0,main_task_2,1.0,1.0,chris,"5/6/2022, 2:50:36 PM",cwrleqd2sft9acsfwuho,0.0-122.0,pilot_sona_afc2,37,,,403.0,,,,,1418.0,"['../stimuli/objectome/403.jpeg', '../stimuli/objectome/140.jpeg', '../stimuli/objectome/148.jpeg']",300906.0,0.0,136.0,23.0,filler,,,,,,,,,,,,,,animals,breed_pug,animals,breed_pug,within,"{'1': None, '2': None, '3': None}",animals,"[140, 148]",TURTLE_L,V0,,,,,,,,,,,,,,,,,,,,,,,,,,,,,,,,,,,,,,,,,,,,,,,
67,627598301a371c538416d217,Chrome,,main_task_2,,,chris,"5/6/2022, 2:50:40 PM",,0.0-124.0,pilot_sona_afc2,,,,,,,,,2948.7000000476837,"<p style='font-size: 150%'><b>You have finished Part 2!</b></p><p>On this section, you averaged <b>30% accuracy</b>.</p><p>Click 'Next' to continue to Part 3.</p>",304496.0,,138.0,,bonus_update,,,,,,,,,,,0,filler,0.0,,,,,,,,,,,,,,,,,,,,,,,,,,,,,,,,,,,,,,,,,,,,,,,,,,,,,,,,,
68,627598561a371c538416d218,Chrome,,main_task_2,1.0,1.0,chris,"5/6/2022, 2:51:17 PM",cwrleqd2sft9acsfwuho,0.0-126.0-0.0,pilot_sona_afc2,,,,,,,,,3209.0,,342390.0,0.0,140.0,1.0,retrieval_practice,,,,,,,,,,,,,,,,,,,,,,,,"{'muct_id': '269', 'lighting': 'u', 'race_guess': 'b', 'gender_guess': 'm', 'quality': '3', 'quality_eyes': '3', 'quality_mouth': '3', 'quality_ears': '3', 'quality_hair': '3', 'quality_neck': '3', 'facial_hair': '0.0', 'notes': None, 'race_common': 'black', 'gender_common': 'man'}","{'muct_id': '19', 'lighting': 'r', 'race_guess': 'w', 'gender_guess': 'w', 'quality': '3', 'quality_eyes': '3', 'quality_mouth': '3', 'quality_ears': '3', 'quality_hair': '3', 'quality_neck': '3', 'facial_hair': '0.0', 'notes': None, 'race_common': 'white', 'gender_common': 'woman'}",man,097,1.0,0.7912301421165466,black,25L,U,088,oddity,woman,017,0.0,0.7348342537879944,11.0,50L,U,white,50L,U,7.0,"['../stimuli/version1_gray_lm/id017_50L_U.png', '../stimuli/version1_gray_lm/id097_25L_U.png']",00C,0.0,,,,,,,,,,,,,,,,,,,,,,
69,627598611a371c538416d219,Chrome,,main_task_2,0.0,2.0,chris,"5/6/2022, 2:51:28 PM",cwrleqd2sft9acsfwuho,0.0-127.0-0.0,pilot_sona_afc2,,,,,,,,,8701.900000095367,,352921.0,0.0,142.0,2.0,retrieval_practice,,,,,,,,,,,,,,,,,,,,,,,,"{'muct_id': '416', 'lighting': 'w', 'race_guess': 'w', 'gender_guess': 'm', 'quality': '3', 'quality_eyes': '3', 'quality_mouth': '3', 'quality_ears': '3', 'quality_hair': '3', 'quality_neck': '3', 'facial_hair': '2.0', 'notes': None, 'race_common': 'white', 'gender_common': 'man'}","{'muct_id': '419', 'lighting': 'x', 'race_guess': 'b', 'gender_guess': 'm', 'quality': '3', 'quality_eyes': '3', 'quality_mouth': '3', 'quality_ears': '3', 'quality_hair': '3', 'quality_neck': '3', 'facial_hair': '1.0', 'notes': None, 'race_common': 'black', 'gender_common': 'man'}",man,149,0.0,0.7919204831123352,white,50L,U,065,oddity,man,118,1.0,0.850471019744873,13.0,00C,C,black,00C,C,26.0,"['../stimuli/version1_gray_lm/id149_50L_U.png', '../stimuli/version1_gray_lm/id118_00C_C.png']",00C,0.0,,,,,,,,,,,,,,,,,,,,,,
70,627598661a371c538416d21a,Chrome,,main_task_2,1.0,2.0,chris,"5/6/2022, 2:51:33 PM",cwrleqd2sft9acsfwuho,0.0-127.1-0.1,pilot_sona_afc2,,,,,,,,,4651.200000047684,,358172.0,0.0,144.0,3.0,retrieval_practice,,,,,,,,,,,,,,,,,,,,,,,,"{'muct_id': '416', 'lighting': 'w', 'race_guess': 'w', 'gender_guess': 'm', 'quality': '3', 'quality_eyes': '3', 'quality_mouth': '3', 'quality_ears': '3', 'quality_hair': '3', 'quality_neck': '3', 'facial_hair': '2.0', 'notes': None, 'race_common': 'white', 'gender_common': 'man'}","{'muct_id': '419', 'lighting': 'x', 'race_guess': 'b', 'gender_guess': 'm', 'quality': '3', 'quality_eyes': '3', 'quality_mouth': '3', 'quality_ears': '3', 'quality_hair': '3', 'quality_neck': '3', 'facial_hair': '1.0', 'notes': None, 'race_common': 'black', 'gender_common': 'man'}",man,149,0.0,0.7919204831123352,white,50L,U,065,oddity,man,118,1.0,0.850471019744873,13.0,00C,C,black,00C,C,80.0,"['../stimuli/version1_gray_lm/id149_50L_U.png', '../stimuli/version1_gray_lm/id118_00C_C.png']",00C,0.0,,,,,,,,,,,,,,,,,,,,,,
71,6275986a1a371c538416d21b,Chrome,,main_task_2,1.0,2.0,chris,"5/6/2022, 2:51:38 PM",cwrleqd2sft9acsfwuho,0.0-128.0-0.0,pilot_sona_afc2,,,,,,,,,3710.0,,362589.0,0.0,146.0,4.0,retrieval_practice,,,,,,,,,,,,,,,,,,,,,,,,"{'muct_id': '420', 'lighting': 'w', 'race_guess': 'b', 'gender_guess': 'm', 'quality': '3', 'quality_eyes': '3', 'quality_mouth': '3', 'quality_ears': '3', 'quality_hair': '3', 'quality_neck': '3', 'facial_hair': '0.0', 'notes': None, 'race_common': 'black', 'gender_common': 'man'}","{'muct_id': '77', 'lighting': 's', 'race_guess': 'w', 'gender_guess': 'w', 'quality': '3', 'quality_eyes': '3', 'quality_mouth': '3', 'quality_ears': '3', 'quality_hair': '3', 'quality_neck': '3', 'facial_hair': '0.0', 'notes': None, 'race_common': 'white', 'gender_common': 'woman'}",man,119,0.0,0.8442468643188477,black,50L,D,031,oddity,woman,141,1.0,0.7728375792503357,7.0,50L,U,white,50L,U,78.0,"['../stimuli/version1_gray_lm/id119_50L_D.png', '../stimuli/version1_gray_lm/id141_50L_U.png']",00C,0.0,,,,,,,,,,,,,,,,,,,,,,
72,627598701a371c538416d21c,Chrome,,main_task_2,1.0,2.0,chris,"5/6/2022, 2:51:44 PM",cwrleqd2sft9acsfwuho,0.0-130.0,pilot_sona_afc2,,,,,,,,,3837.300000190735,,368427.0,0.0,149.0,1.0,retrieval,,,,,,,,,,,,,,,,,,,,,,,,"{'muct_id': '12', 'lighting': 'q', 'race_guess': 'i', 'gender_guess': 'm', 'quality': '3', 'quality_eyes': '3', 'quality_mouth': '3', 'quality_ears': '3', 'quality_hair': '3', 'quality_neck': '3', 'facial_hair': '2.0', 'notes': None, 'race_common': 'white', 'gender_common': 'man'}","{'muct_id': '421', 'lighting': 'x', 'race_guess': 'b', 'gender_guess': 'w', 'quality': '3', 'quality_eyes': '3', 'quality_mouth': '3', 'quality_ears': '3', 'quality_hair': '3', 'quality_neck': '3', 'facial_hair': '0.0', 'notes': None, 'race_common': 'black', 'gender_common': 'woman'}",man,012,0.0,0.8000251650810242,white,50L,U,111,oddity,woman,120,1.0,0.815077006816864,28.0,25L,C,black,25R,C,77.0,"['../stimuli/version1_gray_lm/id012_50L_U.png', '../stimuli/version1_gray_lm/id120_25R_C.png']",50R,50.0,,,,,,,,,,,,,,,,,,,,,,
73,627598751a371c538416d21d,Chrome,,main_task_2,0.0,1.0,chris,"5/6/2022, 2:51:49 PM",cwrleqd2sft9acsfwuho,0.0-132.0,pilot_sona_afc2,,,,,,,,,4512.199999809265,,373485.0,0.0,151.0,2.0,retrieval,,,,,,,,,,,,,,,,,,,,,,,,"{'muct_id': '437', 'lighting': 'x', 'race_guess': 'w', 'gender_guess': 'w', 'quality': '3', 'quality_eyes': '3', 'quality_mouth': '3', 'quality_ears': '3', 'quality_hair': '3', 'quality_neck': '3', 'facial_hair': '0.0', 'notes': 'hair', 'race_common': 'white', 'gender_common': 'woman'}","{'muct_id': '88', 'lighting': 'q', 'race_guess': 'b', 'gender_guess': 'w', 'quality': '3', 'quality_eyes': '3', 'quality_mouth': '3', 'quality_ears': '3', 'quality_hair': '3', 'quality_neck': '3', 'facial_hair': '0.0', 'notes': 'earrings', 'race_common': 'black', 'gender_common': 'woman'}",woman,153,1.0,0.8513438701629639,white,25L,D,140,oddity,woman,060,0.0,0.8078091740608215,27.0,50R,C,black,50R,C,75.0,"['../stimuli/version1_gray_lm/id060_50R_C.png', '../stimuli/version1_gray_lm/id153_25L_D.png']",00C,0.0,,,,,,,,,,,,,,,,,,,,,,
74,6275987b1a371c538416d21e,Chrome,,main_task_2,0.0,1.0,chris,"5/6/2022, 2:51:54 PM",cwrleqd2sft9acsfwuho,0.0-134.0,pilot_sona_afc2,,,,,,,,,4955.0,,379046.0,0.0,153.0,3.0,retrieval,,,,,,,,,,,,,,,,,,,,,,,,"{'muct_id': '401', 'lighting': 'w', 'race_guess': 'w', 'gender_guess': 'w', 'quality': '3', 'quality_eyes': '3', 'quality_mouth': '3', 'quality_ears': '3', 'quality_hair': '3', 'quality_neck': '3', 'facial_hair': '0.0', 'notes': 'mouth', 'race_common': 'white', 'gender_common': 'woman'}","{'muct_id': '425', 'lighting': 'x', 'race_guess': 'b', 'gender_guess': 'm', 'quality': '3', 'quality_eyes': '3', 'quality_mouth': '3', 'quality_ears': '3', 'quality_hair': '3', 'quality_neck': '3', 'facial_hair': '2.0', 'notes': None, 'race_common': 'black', 'gender_common': 'man'}",woman,109,1.0,0.8245269060134888,white,25L,U,112,oddity,man,122,0.0,0.8103669285774231,24.0,50R,C,black,00C,C,64.0,"['../stimuli/version1_gray_lm/id122_00C_C.png', '../stimuli/version1_gray_lm/id109_25L_U.png']",50L,-50.0,,,,,,,,,,,,,,,,,,,,,,
75,6275987f1a371c538416d21f,Chrome,,main_task_2,1.0,2.0,chris,"5/6/2022, 2:51:58 PM",cwrleqd2sft9acsfwuho,0.0-136.0,pilot_sona_afc2,,,,,,,,,3692.4000000953674,,383230.0,0.0,155.0,4.0,retrieval,,,,,,,,,,,,,,,,,,,,,,,,"{'muct_id': '417', 'lighting': 'w', 'race_guess': 'b', 'gender_guess': 'm', 'quality': '3', 'quality_eyes': '3', 'quality_mouth': '3', 'quality_ears': '3', 'quality_hair': '3', 'quality_neck': '3', 'facial_hair': '1.0', 'notes': 'mouth', 'race_common': 'black', 'gender_common': 'man'}","{'muct_id': '433', 'lighting': 'x', 'race_guess': 'w', 'gender_guess': 'w', 'quality': '3', 'quality_eyes': '3', 'quality_mouth': '3', 'quality_ears': '3', 'quality_hair': '3', 'quality_neck': '3', 'facial_hair': '0.0', 'notes': None, 'race_common': 'white', 'gender_common': 'woman'}",man,117,0.0,0.8040590882301331,black,25R,C,148,oddity,woman,125,1.0,0.8206691145896912,26.0,00C,U,white,50L,U,75.0,"['../stimuli/version1_gray_lm/id117_25R_C.png', '../stimuli/version1_gray_lm/id125_50L_U.png']",50L,-50.0,,,,,,,,,,,,,,,,,,,,,,
76,627598841a371c538416d220,Chrome,,main_task_2,1.0,2.0,chris,"5/6/2022, 2:52:03 PM",cwrleqd2sft9acsfwuho,0.0-138.0,pilot_sona_afc2,,,,,,,,,3851.2999999523163,,387994.0,0.0,157.0,5.0,retrieval,,,,,,,,,,,,,,,,,,,,,,,,"{'muct_id': '249', 'lighting': 't', 'race_guess': 'b', 'gender_guess': 'w', 'quality': '2', 'quality_eyes': '2', 'quality_mouth': '3', 'quality_ears': '3', 'quality_hair': '3', 'quality_neck': '3', 'facial_hair': '0.0', 'notes': None, 'race_common': 'black', 'gender_common': 'man'}","{'muct_id': '45', 'lighting': 'q', 'race_guess': 'w', 'gender_guess': 'm', 'quality': '3', 'quality_eyes': '3', 'quality_mouth': '3', 'quality_ears': '3', 'quality_hair': '3', 'quality_neck': '3', 'facial_hair': '0.0', 'notes': None, 'race_common': 'white', 'gender_common': 'man'}",man,085,0.0,0.7109470963478088,black,50L,U,037,oddity,man,034,1.0,0.7912072539329529,3.0,00C,C,white,50R,C,73.0,"['../stimuli/version1_gray_lm/id085_50L_U.png', '../stimuli/version1_gray_lm/id034_50R_C.png']",50R,50.0,,,,,,,,,,,,,,,,,,,,,,
77,627598881a371c538416d221,Chrome,,main_task_2,0.0,1.0,chris,"5/6/2022, 2:52:07 PM",cwrleqd2sft9acsfwuho,0.0-140.0,pilot_sona_afc2,,,,,,,,,3776.699999809265,,392386.0,0.0,159.0,6.0,retrieval,,,,,,,,,,,,,,,,,,,,,,,,"{'muct_id': '261', 'lighting': 'v', 'race_guess': 'w', 'gender_guess': 'm', 'quality': '2', 'quality_eyes': '2', 'quality_mouth': '3', 'quality_ears': '3', 'quality_hair': '3', 'quality_neck': '3', 'facial_hair': '0.0', 'notes': None, 'race_common': 'white', 'gender_common': 'man'}","{'muct_id': '44', 'lighting': 'q', 'race_guess': 'u', 'gender_guess': 'm', 'quality': '3', 'quality_eyes': '3', 'quality_mouth': '3', 'quality_ears': '3', 'quality_hair': '3', 'quality_neck': '3', 'facial_hair': '2.0', 'notes': None, 'race_common': 'black', 'gender_common': 'man'}",man,092,1.0,0.815679669380188,white,50L,D,056,oddity,man,033,0.0,0.8084548115730286,6.0,25L,U,black,25L,U,68.0,"['../stimuli/version1_gray_lm/id033_25L_U.png', '../stimuli/version1_gray_lm/id092_50L_D.png']",00C,0.0,,,,,,,,,,,,,,,,,,,,,,
78,6275988d1a371c538416d222,Chrome,,main_task_2,1.0,1.0,chris,"5/6/2022, 2:52:12 PM",cwrleqd2sft9acsfwuho,0.0-142.0,pilot_sona_afc2,,,,,,,,,4060.699999809265,,397348.0,0.0,161.0,7.0,retrieval,,,,,,,,,,,,,,,,,,,,,,,,"{'muct_id': '5', 'lighting': 'q', 'race_guess': 'b', 'gender_guess': 'w', 'quality': '3', 'quality_eyes': '3', 'quality_mouth': '3', 'quality_ears': '3', 'quality_hair': '3', 'quality_neck': '3', 'facial_hair': '0.0', 'notes': 'hat', 'race_common': 'black', 'gender_common': 'woman'}","{'muct_id': '80', 'lighting': 's', 'race_guess': 'b', 'gender_guess': 'w', 'quality': '3', 'quality_eyes': '3', 'quality_mouth': '3', 'quality_ears': '3', 'quality_hair': '3', 'quality_neck': '3', 'facial_hair': '0.0', 'notes': 'earrings', 'race_common': 'white', 'gender_common': 'woman'}",woman,005,1.0,0.7849015593528748,black,50L,U,102,oddity,woman,054,0.0,0.8611087799072266,12.0,25L,U,white,25R,U,27.0,"['../stimuli/version1_gray_lm/id054_25R_U.png', '../stimuli/version1_gray_lm/id005_50L_U.png']",50R,50.0,,,,,,,,,,,,,,,,,,,,,,
79,627598911a371c538416d223,Chrome,,main_task_2,1.0,1.0,chris,"5/6/2022, 2:52:16 PM",cwrleqd2sft9acsfwuho,0.0-144.0,pilot_sona_afc2,,,,,,,,,3145.399999856949,,401070.0,0.0,163.0,8.0,retrieval,,,,,,,,,,,,,,,,,,,,,,,,"{'muct_id': '224', 'lighting': 't', 'race_guess': 'u', 'gender_guess': 'm', 'quality': '3', 'quality_eyes': '3', 'quality_mouth': '3', 'quality_ears': '3', 'quality_hair': '3', 'quality_neck': '3', 'facial_hair': '0.0', 'notes': 'smile', 'race_common': 'black', 'gender_common': 'man'}","{'muct_id': '14', 'lighting': 'q', 'race_guess': 'w', 'gender_guess': 'w', 'quality': '3', 'quality_eyes': '3', 'quality_mouth': '3', 'quality_ears': '3', 'quality_hair': '3', 'quality_neck': '3', 'facial_hair': '0.0', 'notes': None, 'race_common': 'white', 'gender_common': 'woman'}",man,072,1.0,0.7840337753295898,black,25R,C,042,oddity,woman,013,0.0,0.7987657785415649,15.0,50L,U,white,50L,U,27.0,"['../stimuli/version1_gray_lm/id013_50L_U.png', '../stimuli/version1_gray_lm/id072_25R_C.png']",00C,0.0,,,,,,,,,,,,,,,,,,,,,,
80,627598961a371c538416d224,Chrome,,main_task_2,1.0,2.0,chris,"5/6/2022, 2:52:22 PM",cwrleqd2sft9acsfwuho,0.0-146.0,pilot_sona_afc2,,,,,,,,,4941.900000095367,,406567.0,0.0,165.0,9.0,retrieval,,,,,,,,,,,,,,,,,,,,,,,,"{'muct_id': '235', 'lighting': 'u', 'race_guess': 'b', 'gender_guess': 'w', 'quality': '3', 'quality_eyes': '3', 'quality_mouth': '3', 'quality_ears': '3', 'quality_hair': '3', 'quality_neck': '3', 'facial_hair': '0.0', 'notes': 'earrings', 'race_common': 'black', 'gender_common': 'woman'}","{'muct_id': '64', 'lighting': 'q', 'race_guess': 'w', 'gender_guess': 'm', 'quality': '3', 'quality_eyes': '3', 'quality_mouth': '3', 'quality_ears': '3', 'quality_hair': '3', 'quality_neck': '3', 'facial_hair': '0.0', 'notes': None, 'race_common': 'white', 'gender_common': 'man'}",woman,077,0.0,0.8132347464561462,black,25L,U,100,oddity,man,047,1.0,0.8186096549034119,29.0,25L,D,white,25R,D,71.0,"['../stimuli/version1_gray_lm/id077_25L_U.png', '../stimuli/version1_gray_lm/id047_25R_D.png']",50R,50.0,,,,,,,,,,,,,,,,,,,,,,
81,6275989d1a371c538416d225,Chrome,,main_task_2,1.0,1.0,chris,"5/6/2022, 2:52:28 PM",cwrleqd2sft9acsfwuho,0.0-148.0,pilot_sona_afc2,,,,,,,,,5632.399999856949,,412687.0,0.0,167.0,10.0,retrieval,,,,,,,,,,,,,,,,,,,,,,,,"{'muct_id': '285', 'lighting': 'v', 'race_guess': 'b', 'gender_guess': 'w', 'quality': '3', 'quality_eyes': '3', 'quality_mouth': '3', 'quality_ears': '3', 'quality_hair': '3', 'quality_neck': '3', 'facial_hair': '0.0', 'notes': 'earrings', 'race_common': 'black', 'gender_common': 'woman'}","{'muct_id': '230', 'lighting': 'u', 'race_guess': 'w', 'gender_guess': 'm', 'quality': '3', 'quality_eyes': '3', 'quality_mouth': '3', 'quality_ears': '3', 'quality_hair': '3', 'quality_neck': '3', 'facial_hair': '0.0', 'notes': 'hair', 'race_common': 'white', 'gender_common': 'man'}",woman,103,1.0,0.7970966696739197,black,50L,U,032,oddity,man,145,0.0,0.820552408695221,39.0,00C,U,white,00C,U,3.0,"['../stimuli/version1_gray_lm/id145_00C_U.png', '../stimuli/version1_gray_lm/id103_50L_U.png']",00C,0.0,,,,,,,,,,,,,,,,,,,,,,
82,627598a31a371c538416d226,Chrome,,main_task_2,1.0,1.0,chris,"5/6/2022, 2:52:34 PM",cwrleqd2sft9acsfwuho,0.0-150.0,pilot_sona_afc2,,,,,,,,,5248.0,,418640.0,0.0,169.0,11.0,retrieval,,,,,,,,,,,,,,,,,,,,,,,,"{'muct_id': '422', 'lighting': 'w', 'race_guess': 'u', 'gender_guess': 'w', 'quality': '3', 'quality_eyes': '3', 'quality_mouth': '3', 'quality_ears': '3', 'quality_hair': '3', 'quality_neck': '3', 'facial_hair': '0.0', 'notes': 'mouth', 'race_common': 'white', 'gender_common': 'woman'}","{'muct_id': '616', 'lighting': 'y', 'race_guess': 'b', 'gender_guess': 'w', 'quality': '3', 'quality_eyes': '3', 'quality_mouth': '3', 'quality_ears': '3', 'quality_hair': '3', 'quality_neck': '3', 'facial_hair': '0.0', 'notes': 'earrings', 'race_common': 'black', 'gender_common': 'woman'}",woman,150,1.0,0.8235642313957214,white,50L,C,027,oddity,woman,136,0.0,0.8299121856689453,14.0,00C,U,black,00C,U,13.0,"['../stimuli/version1_gray_lm/id136_00C_U.png', '../stimuli/version1_gray_lm/id150_50L_C.png']",00C,0.0,,,,,,,,,,,,,,,,,,,,,,
83,627598a71a371c538416d227,Chrome,,main_task_2,0.0,1.0,chris,"5/6/2022, 2:52:38 PM",cwrleqd2sft9acsfwuho,0.0-152.0,pilot_sona_afc2,,,,,,,,,3916.899999856949,,423164.0,0.0,171.0,12.0,retrieval,,,,,,,,,,,,,,,,,,,,,,,,"{'muct_id': '214', 'lighting': 'u', 'race_guess': 'b', 'gender_guess': 'w', 'quality': '2', 'quality_eyes': '2', 'quality_mouth': '3', 'quality_ears': '3', 'quality_hair': '3', 'quality_neck': '3', 'facial_hair': '0.0', 'notes': None, 'race_common': 'black', 'gender_common': 'woman'}","{'muct_id': '79', 'lighting': 'r', 'race_guess': 'i', 'gender_guess': 'm', 'quality': '2', 'quality_eyes': '2', 'quality_mouth': '3', 'quality_ears': '3', 'quality_hair': '2', 'quality_neck': '3', 'facial_hair': '0.0', 'notes': None, 'race_common': 'white', 'gender_common': 'man'}",woman,144,1.0,0.7954238057136536,black,25L,C,043,oddity,man,053,0.0,0.8599304556846619,5.0,25R,D,white,25L,D,68.0,"['../stimuli/version1_gray_lm/id053_25L_D.png', '../stimuli/version1_gray_lm/id144_25L_C.png']",50L,-50.0,,,,,,,,,,,,,,,,,,,,,,
84,627598ac1a371c538416d228,Chrome,,main_task_2,1.0,2.0,chris,"5/6/2022, 2:52:43 PM",cwrleqd2sft9acsfwuho,0.0-154.0,pilot_sona_afc2,,,,,,,,,4092.5999999046326,,427791.0,0.0,173.0,13.0,retrieval,,,,,,,,,,,,,,,,,,,,,,,,"{'muct_id': '248', 'lighting': 'u', 'race_guess': 'w', 'gender_guess': 'w', 'quality': '3', 'quality_eyes': '3', 'quality_mouth': '3', 'quality_ears': '3', 'quality_hair': '3', 'quality_neck': '3', 'facial_hair': '0.0', 'notes': None, 'race_common': 'white', 'gender_common': 'woman'}","{'muct_id': '55', 'lighting': 'r', 'race_guess': 'b', 'gender_guess': 'm', 'quality': '3', 'quality_eyes': '3', 'quality_mouth': '3', 'quality_ears': '3', 'quality_hair': '3', 'quality_neck': '3', 'facial_hair': '3.0', 'notes': 'beard', 'race_common': 'black', 'gender_common': 'man'}",woman,084,0.0,0.8690771460533142,white,00C,D,081,oddity,man,040,1.0,0.8518031239509583,20.0,50L,D,black,50L,D,79.0,"['../stimuli/version1_gray_lm/id084_00C_D.png', '../stimuli/version1_gray_lm/id040_50L_D.png']",00C,0.0,,,,,,,,,,,,,,,,,,,,,,
85,627598b01a371c538416d229,Chrome,,main_task_2,1.0,2.0,chris,"5/6/2022, 2:52:47 PM",cwrleqd2sft9acsfwuho,0.0-156.0,pilot_sona_afc2,,,,,,,,,3868.800000190735,,432232.0,0.0,175.0,14.0,retrieval,,,,,,,,,,,,,,,,,,,,,,,,"{'muct_id': '259', 'lighting': 'v', 'race_guess': 'b', 'gender_guess': 'm', 'quality': '3', 'quality_eyes': '3', 'quality_mouth': '3', 'quality_ears': '3', 'quality_hair': '3', 'quality_neck': '3', 'facial_hair': '2.0', 'notes': None, 'race_common': 'black', 'gender_common': 'man'}","{'muct_id': '229', 'lighting': 't', 'race_guess': 'w', 'gender_guess': 'm', 'quality': '3', 'quality_eyes': '3', 'quality_mouth': '3', 'quality_ears': '3', 'quality_hair': '3', 'quality_neck': '3', 'facial_hair': '2.0', 'notes': 'mouth', 'race_common': 'white', 'gender_common': 'man'}",man,090,0.0,0.8280301094055176,black,25L,C,073,oddity,man,074,1.0,0.8224310278892517,36.0,25R,D,white,25R,D,69.0,"['../stimuli/version1_gray_lm/id090_25L_C.png', '../stimuli/version1_gray_lm/id074_25R_D.png']",00C,0.0,,,,,,,,,,,,,,,,,,,,,,
86,627598ba1a371c538416d22a,Chrome,,main_task_2,1.0,1.0,chris,"5/6/2022, 2:52:57 PM",cwrleqd2sft9acsfwuho,0.0-158.0,pilot_sona_afc2,,,,,,,,,9371.799999952316,,442328.0,0.0,177.0,15.0,retrieval,,,,,,,,,,,,,,,,,,,,,,,,"{'muct_id': '615', 'lighting': 'z', 'race_guess': 'w', 'gender_guess': 'w', 'quality': '3', 'quality_eyes': '3', 'quality_mouth': '3', 'quality_ears': '3', 'quality_hair': '3', 'quality_neck': '3', 'facial_hair': '0.0', 'notes': 'earrings', 'race_common': 'white', 'gender_common': 'woman'}","{'muct_id': '407', 'lighting': 'x', 'race_guess': 'u', 'gender_guess': 'm', 'quality': '3', 'quality_eyes': '3', 'quality_mouth': '3', 'quality_ears': '3', 'quality_hair': '3', 'quality_neck': '3', 'facial_hair': '3.0', 'notes': 'beard', 'race_common': 'black', 'gender_common': 'man'}",woman,155,1.0,0.8348320722579956,white,25R,U,028,oddity,man,113,0.0,0.7968314290046692,38.0,50R,U,black,00C,U,28.0,"['../stimuli/version1_gray_lm/id113_00C_U.png', '../stimuli/version1_gray_lm/id155_25R_U.png']",50L,-50.0,,,,,,,,,,,,,,,,,,,,,,
87,627598c01a371c538416d22b,Chrome,,main_task_2,0.0,2.0,chris,"5/6/2022, 2:53:03 PM",cwrleqd2sft9acsfwuho,0.0-160.0,pilot_sona_afc2,,,,,,,,,4963.300000190735,,447891.0,0.0,179.0,16.0,retrieval,,,,,,,,,,,,,,,,,,,,,,,,"{'muct_id': '46', 'lighting': 'q', 'race_guess': 'b', 'gender_guess': 'w', 'quality': '3', 'quality_eyes': '3', 'quality_mouth': '3', 'quality_ears': '3', 'quality_hair': '3', 'quality_neck': '3', 'facial_hair': '0.0', 'notes': 'earrings', 'race_common': 'black', 'gender_common': 'woman'}","{'muct_id': '7', 'lighting': 's', 'race_guess': 'u', 'gender_guess': 'w', 'quality': '3', 'quality_eyes': '3', 'quality_mouth': '3', 'quality_ears': '3', 'quality_hair': '3', 'quality_neck': '3', 'facial_hair': '0.0', 'notes': None, 'race_common': 'white', 'gender_common': 'woman'}",woman,035,0.0,0.8166956901550293,black,00C,U,152,oddity,woman,007,1.0,0.837319016456604,0.0,00C,D,white,50R,D,5.0,"['../stimuli/version1_gray_lm/id035_00C_U.png', '../stimuli/version1_gray_lm/id007_50R_D.png']",50R,50.0,,,,,,,,,,,,,,,,,,,,,,
88,627598c91a371c538416d22c,Chrome,,main_task_2,0.0,2.0,chris,"5/6/2022, 2:53:12 PM",cwrleqd2sft9acsfwuho,0.0-162.0,pilot_sona_afc2,,,,,,,,,8736.700000047684,,457147.0,0.0,181.0,17.0,retrieval,,,,,,,,,,,,,,,,,,,,,,,,"{'muct_id': '23', 'lighting': 'q', 'race_guess': 'b', 'gender_guess': 'u', 'quality': '3', 'quality_eyes': '3', 'quality_mouth': '3', 'quality_ears': '3', 'quality_hair': '3', 'quality_neck': '3', 'facial_hair': '0.0', 'notes': None, 'race_common': 'black', 'gender_common': 'woman'}","{'muct_id': '258', 'lighting': 'u', 'race_guess': 'w', 'gender_guess': 'm', 'quality': '2', 'quality_eyes': '3', 'quality_mouth': '3', 'quality_ears': '3', 'quality_hair': '2', 'quality_neck': '3', 'facial_hair': '0.0', 'notes': 'hair', 'race_common': 'white', 'gender_common': 'man'}",woman,019,0.0,0.8296270370483398,black,50R,C,115,oddity,man,156,1.0,0.8538445830345154,32.0,50R,C,white,00C,C,27.0,"['../stimuli/version1_gray_lm/id019_50R_C.png', '../stimuli/version1_gray_lm/id156_00C_C.png']",50L,-50.0,,,,,,,,,,,,,,,,,,,,,,
89,627598ce1a371c538416d22d,Chrome,,main_task_2,1.0,2.0,chris,"5/6/2022, 2:53:17 PM",cwrleqd2sft9acsfwuho,0.0-164.0,pilot_sona_afc2,,,,,,,,,4704.5,,462332.0,0.0,183.0,18.0,retrieval,,,,,,,,,,,,,,,,,,,,,,,,"{'muct_id': '218', 'lighting': 't', 'race_guess': 'b', 'gender_guess': 'w', 'quality': '3', 'quality_eyes': '3', 'quality_mouth': '3', 'quality_ears': '3', 'quality_hair': '3', 'quality_neck': '3', 'facial_hair': '0.0', 'notes': None, 'race_common': 'black', 'gender_common': 'woman'}","{'muct_id': '39', 'lighting': 'r', 'race_guess': 'w', 'gender_guess': 'w', 'quality': '3', 'quality_eyes': '3', 'quality_mouth': '3', 'quality_ears': '3', 'quality_hair': '3', 'quality_neck': '3', 'facial_hair': '0.0', 'notes': 'earrings hair', 'race_common': 'white', 'gender_common': 'woman'}",woman,069,0.0,0.8066383600234985,black,50R,C,101,oddity,woman,029,1.0,0.8426966667175293,8.0,25R,U,white,25R,U,85.0,"['../stimuli/version1_gray_lm/id069_50R_C.png', '../stimuli/version1_gray_lm/id029_25R_U.png']",00C,0.0,,,,,,,,,,,,,,,,,,,,,,
90,627598d21a371c538416d22e,Chrome,,main_task_2,1.0,1.0,chris,"5/6/2022, 2:53:21 PM",cwrleqd2sft9acsfwuho,0.0-166.0,pilot_sona_afc2,,,,,,,,,3606.7000000476837,,466324.0,0.0,185.0,19.0,retrieval,,,,,,,,,,,,,,,,,,,,,,,,"{'muct_id': '240', 'lighting': 'u', 'race_guess': 'w', 'gender_guess': 'm', 'quality': '3', 'quality_eyes': '3', 'quality_mouth': '3', 'quality_ears': '3', 'quality_hair': '3', 'quality_neck': '3', 'facial_hair': '0.0', 'notes': 'mouth', 'race_common': 'white', 'gender_common': 'man'}","{'muct_id': '623', 'lighting': 'y', 'race_guess': 'b', 'gender_guess': 'm', 'quality': '3', 'quality_eyes': '3', 'quality_mouth': '3', 'quality_ears': '3', 'quality_hair': '3', 'quality_neck': '3', 'facial_hair': '1.0', 'notes': 'mouth', 'race_common': 'black', 'gender_common': 'man'}",man,080,1.0,0.8826303482055664,white,25L,C,004,oddity,man,139,0.0,0.8302584886550903,37.0,50L,U,black,00C,U,0.0,"['../stimuli/version1_gray_lm/id139_00C_U.png', '../stimuli/version1_gray_lm/id080_25L_C.png']",50R,50.0,,,,,,,,,,,,,,,,,,,,,,
91,627598d61a371c538416d22f,Chrome,,main_task_2,1.0,1.0,chris,"5/6/2022, 2:53:25 PM",cwrleqd2sft9acsfwuho,0.0-168.0,pilot_sona_afc2,,,,,,,,,3439.7000000476837,,470356.0,0.0,187.0,20.0,retrieval,,,,,,,,,,,,,,,,,,,,,,,,"{'muct_id': '278', 'lighting': 't', 'race_guess': 'w', 'gender_guess': 'm', 'quality': '3', 'quality_eyes': '3', 'quality_mouth': '3', 'quality_ears': '3', 'quality_hair': '3', 'quality_neck': '3', 'facial_hair': '0.0', 'notes': None, 'race_common': 'white', 'gender_common': 'man'}","{'muct_id': '617', 'lighting': 'y', 'race_guess': 'b', 'gender_guess': 'w', 'quality': '3', 'quality_eyes': '3', 'quality_mouth': '3', 'quality_ears': '3', 'quality_hair': '3', 'quality_neck': '3', 'facial_hair': '0.0', 'notes': 'mouth', 'race_common': 'black', 'gender_common': 'man'}",man,099,1.0,0.8133437037467957,white,50L,C,036,oddity,man,137,0.0,0.8485629558563232,31.0,00C,C,black,00C,C,0.0,"['../stimuli/version1_gray_lm/id137_00C_C.png', '../stimuli/version1_gray_lm/id099_50L_C.png']",00C,0.0,,,,,,,,,,,,,,,,,,,,,,
92,627598da1a371c538416d230,Chrome,,main_task_2,1.0,1.0,chris,"5/6/2022, 2:53:30 PM",cwrleqd2sft9acsfwuho,0.0-170.0,pilot_sona_afc2,,,,,,,,,3614.0,,474509.0,0.0,189.0,21.0,retrieval,,,,,,,,,,,,,,,,,,,,,,,,"{'muct_id': '74', 'lighting': 'q', 'race_guess': 'w', 'gender_guess': 'w', 'quality': '3', 'quality_eyes': '3', 'quality_mouth': '3', 'quality_ears': '3', 'quality_hair': '3', 'quality_neck': '3', 'facial_hair': '0.0', 'notes': None, 'race_common': 'white', 'gender_common': 'woman'}","{'muct_id': '26', 'lighting': 'q', 'race_guess': 'b', 'gender_guess': 'w', 'quality': '3', 'quality_eyes': '3', 'quality_mouth': '3', 'quality_ears': '3', 'quality_hair': '3', 'quality_neck': '3', 'facial_hair': '0.0', 'notes': 'earrings', 'race_common': 'black', 'gender_common': 'woman'}",woman,051,1.0,0.8295441269874573,white,50L,U,046,oddity,woman,022,0.0,0.8492570519447327,23.0,00C,D,black,00C,D,25.0,"['../stimuli/version1_gray_lm/id022_00C_D.png', '../stimuli/version1_gray_lm/id051_50L_U.png']",00C,0.0,,,,,,,,,,,,,,,,,,,,,,
93,627598e01a371c538416d231,Chrome,,main_task_2,1.0,2.0,chris,"5/6/2022, 2:53:35 PM",cwrleqd2sft9acsfwuho,0.0-172.0,pilot_sona_afc2,,,,,,,,,4548.200000047684,,479726.0,0.0,191.0,22.0,retrieval,,,,,,,,,,,,,,,,,,,,,,,,"{'muct_id': '444', 'lighting': 'w', 'race_guess': 'w', 'gender_guess': 'w', 'quality': '3', 'quality_eyes': '3', 'quality_mouth': '3', 'quality_ears': '3', 'quality_hair': '3', 'quality_neck': '3', 'facial_hair': '0.0', 'notes': None, 'race_common': 'white', 'gender_common': 'woman'}","{'muct_id': '25', 'lighting': 'r', 'race_guess': 'b', 'gender_guess': 'm', 'quality': '3', 'quality_eyes': '3', 'quality_mouth': '3', 'quality_ears': '3', 'quality_hair': '3', 'quality_neck': '3', 'facial_hair': '2.0', 'notes': None, 'race_common': 'black', 'gender_common': 'man'}",woman,151,0.0,0.8594769239425659,white,00C,C,132,oddity,man,021,1.0,0.8362842798233032,34.0,00C,D,black,50L,D,74.0,"['../stimuli/version1_gray_lm/id151_00C_C.png', '../stimuli/version1_gray_lm/id021_50L_D.png']",50L,-50.0,,,,,,,,,,,,,,,,,,,,,,
94,627598e31a371c538416d232,Chrome,,main_task_2,0.0,1.0,chris,"5/6/2022, 2:53:38 PM",cwrleqd2sft9acsfwuho,0.0-174.0,pilot_sona_afc2,,,,,,,,,2546.5,,483239.0,0.0,193.0,23.0,retrieval,,,,,,,,,,,,,,,,,,,,,,,,"{'muct_id': '87', 'lighting': 'r', 'race_guess': 'b', 'gender_guess': 'w', 'quality': '3', 'quality_eyes': '3', 'quality_mouth': '3', 'quality_ears': '3', 'quality_hair': '3', 'quality_neck': '3', 'facial_hair': '0.0', 'notes': 'earrings hair', 'race_common': 'black', 'gender_common': 'woman'}","{'muct_id': '414', 'lighting': 'w', 'race_guess': 'w', 'gender_guess': 'm', 'quality': '3', 'quality_eyes': '3', 'quality_mouth': '3', 'quality_ears': '3', 'quality_hair': '3', 'quality_neck': '3', 'facial_hair': '0.0', 'notes': None, 'race_common': 'white', 'gender_common': 'man'}",woman,142,1.0,0.8361872434616089,black,50R,C,146,oddity,man,116,0.0,0.8697882890701294,25.0,00C,D,white,00C,D,81.0,"['../stimuli/version1_gray_lm/id116_00C_D.png', '../stimuli/version1_gray_lm/id142_50R_C.png']",00C,0.0,,,,,,,,,,,,,,,,,,,,,,
95,627598e81a371c538416d233,Chrome,,main_task_2,1.0,2.0,chris,"5/6/2022, 2:53:43 PM",cwrleqd2sft9acsfwuho,0.0-176.0,pilot_sona_afc2,,,,,,,,,3971.9000000953674,,487713.0,0.0,195.0,24.0,retrieval,,,,,,,,,,,,,,,,,,,,,,,,"{'muct_id': '601', 'lighting': 'y', 'race_guess': 'b', 'gender_guess': 'w', 'quality': '3', 'quality_eyes': '3', 'quality_mouth': '3', 'quality_ears': '3', 'quality_hair': '3', 'quality_neck': '3', 'facial_hair': '0.0', 'notes': 'mouth', 'race_common': 'black', 'gender_common': 'woman'}","{'muct_id': '90', 'lighting': 'q', 'race_guess': 'u', 'gender_guess': 'm', 'quality': '2', 'quality_eyes': '3', 'quality_mouth': '3', 'quality_ears': '2', 'quality_hair': '3', 'quality_neck': '3', 'facial_hair': '4.0', 'notes': 'beard', 'race_common': 'white', 'gender_common': 'man'}",woman,133,0.0,0.8669261336326599,black,50R,U,050,oddity,man,143,1.0,0.8593544363975525,18.0,00C,C,white,50R,C,76.0,"['../stimuli/version1_gray_lm/id133_50R_U.png', '../stimuli/version1_gray_lm/id143_50R_C.png']",50R,50.0,,,,,,,,,,,,,,,,,,,,,,
96,627598eb1a371c538416d234,Chrome,,main_task_2,0.0,2.0,chris,"5/6/2022, 2:53:46 PM",cwrleqd2sft9acsfwuho,0.0-178.0,pilot_sona_afc2,,,,,,,,,2614.899999856949,,491025.0,0.0,197.0,25.0,retrieval,,,,,,,,,,,,,,,,,,,,,,,,"{'muct_id': '410', 'lighting': 'w', 'race_guess': 'w', 'gender_guess': 'w', 'quality': '3', 'quality_eyes': '3', 'quality_mouth': '3', 'quality_ears': '3', 'quality_hair': '3', 'quality_neck': '3', 'facial_hair': '0.0', 'notes': 'makeup mouth', 'race_common': 'white', 'gender_common': 'woman'}","{'muct_id': '81', 'lighting': 'q', 'race_guess': 'b', 'gender_guess': 'm', 'quality': '3', 'quality_eyes': '3', 'quality_mouth': '3', 'quality_ears': '3', 'quality_hair': '3', 'quality_neck': '3', 'facial_hair': '0.0', 'notes': None, 'race_common': 'black', 'gender_common': 'man'}",woman,114,0.0,0.8129702210426331,white,50R,C,124,oddity,man,055,1.0,0.8493728041648865,19.0,25R,D,black,25L,D,22.0,"['../stimuli/version1_gray_lm/id114_50R_C.png', '../stimuli/version1_gray_lm/id055_25L_D.png']",50L,-50.0,,,,,,,,,,,,,,,,,,,,,,
97,627598ef1a371c538416d235,Chrome,,main_task_2,0.0,1.0,chris,"5/6/2022, 2:53:51 PM",cwrleqd2sft9acsfwuho,0.0-180.0,pilot_sona_afc2,,,,,,,,,3763.5,,495457.0,0.0,199.0,26.0,retrieval,,,,,,,,,,,,,,,,,,,,,,,,"{'muct_id': '84', 'lighting': 'q', 'race_guess': 'b', 'gender_guess': 'm', 'quality': '2', 'quality_eyes': '2', 'quality_mouth': '3', 'quality_ears': '3', 'quality_hair': '3', 'quality_neck': '3', 'facial_hair': '3.0', 'notes': 'beard', 'race_common': 'black', 'gender_common': 'man'}","{'muct_id': '233', 'lighting': 'u', 'race_guess': 'w', 'gender_guess': 'w', 'quality': '3', 'quality_eyes': '3', 'quality_mouth': '3', 'quality_ears': '3', 'quality_hair': '3', 'quality_neck': '3', 'facial_hair': '0.0', 'notes': 'earrings', 'race_common': 'white', 'gender_common': 'woman'}",man,058,1.0,0.7833719253540039,black,25R,U,018,oddity,woman,076,0.0,0.8417189121246338,35.0,25R,U,white,25R,U,71.0,"['../stimuli/version1_gray_lm/id076_25R_U.png', '../stimuli/version1_gray_lm/id058_25R_U.png']",00C,0.0,,,,,,,,,,,,,,,,,,,,,,
98,627598f41a371c538416d236,Chrome,,main_task_2,1.0,1.0,chris,"5/6/2022, 2:53:55 PM",cwrleqd2sft9acsfwuho,0.0-182.0,pilot_sona_afc2,,,,,,,,,3708.0,,499698.0,0.0,201.0,27.0,retrieval,,,,,,,,,,,,,,,,,,,,,,,,"{'muct_id': '442', 'lighting': 'x', 'race_guess': 'w', 'gender_guess': 'm', 'quality': '3', 'quality_eyes': '3', 'quality_mouth': '3', 'quality_ears': '3', 'quality_hair': '3', 'quality_neck': '3', 'facial_hair': '2.0', 'notes': None, 'race_common': 'white', 'gender_common': 'man'}","{'muct_id': '250', 'lighting': 't', 'race_guess': 'b', 'gender_guess': 'm', 'quality': '3', 'quality_eyes': '3', 'quality_mouth': '3', 'quality_ears': '3', 'quality_hair': '3', 'quality_neck': '3', 'facial_hair': '1.0', 'notes': None, 'race_common': 'black', 'gender_common': 'man'}",man,131,1.0,0.8263471126556396,white,50R,D,064,oddity,man,086,0.0,0.7829839587211609,17.0,25R,U,black,25R,U,24.0,"['../stimuli/version1_gray_lm/id086_25R_U.png', '../stimuli/version1_gray_lm/id131_50R_D.png']",00C,0.0,,,,,,,,,,,,,,,,,,,,,,
99,627598f71a371c538416d237,Chrome,,main_task_2,0.0,2.0,chris,"5/6/2022, 2:53:58 PM",cwrleqd2sft9acsfwuho,0.0-184.0,pilot_sona_afc2,,,,,,,,,2651.2000000476837,,502794.0,0.0,203.0,28.0,retrieval,,,,,,,,,,,,,,,,,,,,,,,,"{'muct_id': '41', 'lighting': 'r', 'race_guess': 'b', 'gender_guess': 'm', 'quality': '3', 'quality_eyes': '3', 'quality_mouth': '3', 'quality_ears': '3', 'quality_hair': '3', 'quality_neck': '3', 'facial_hair': '0.0', 'notes': None, 'race_common': 'black', 'gender_common': 'man'}","{'muct_id': '287', 'lighting': 't', 'race_guess': 'w', 'gender_guess': 'm', 'quality': '3', 'quality_eyes': '3', 'quality_mouth': '3', 'quality_ears': '3', 'quality_hair': '3', 'quality_neck': '3', 'facial_hair': '2.0', 'notes': None, 'race_common': 'white', 'gender_common': 'man'}",man,030,0.0,0.8023080229759216,black,50L,U,061,oddity,man,104,1.0,0.8687484264373779,21.0,00C,C,white,00C,C,22.0,"['../stimuli/version1_gray_lm/id030_50L_U.png', '../stimuli/version1_gray_lm/id104_00C_C.png']",00C,0.0,,,,,,,,,,,,,,,,,,,,,,
100,627598fa1a371c538416d238,Chrome,,main_task_2,1.0,1.0,chris,"5/6/2022, 2:54:02 PM",cwrleqd2sft9acsfwuho,0.0-186.0,pilot_sona_afc2,,,,,,,,,3215.4000000953674,,506568.0,0.0,205.0,29.0,retrieval,,,,,,,,,,,,,,,,,,,,,,,,"{'muct_id': '243', 'lighting': 'v', 'race_guess': 'b', 'gender_guess': 'm', 'quality': '3', 'quality_eyes': '3', 'quality_mouth': '3', 'quality_ears': '3', 'quality_hair': '3', 'quality_neck': '3', 'facial_hair': '0.0', 'notes': None, 'race_common': 'black', 'gender_common': 'man'}","{'muct_id': '56', 'lighting': 'q', 'race_guess': 'w', 'gender_guess': 'm', 'quality': '3', 'quality_eyes': '3', 'quality_mouth': '3', 'quality_ears': '3', 'quality_hair': '3', 'quality_neck': '3', 'facial_hair': '0.0', 'notes': None, 'race_common': 'white', 'gender_common': 'man'}",man,083,1.0,0.7519458532333374,black,50R,U,039,oddity,man,041,0.0,0.8221980333328247,16.0,50L,C,white,50L,C,25.0,"['../stimuli/version1_gray_lm/id041_50L_C.png', '../stimuli/version1_gray_lm/id083_50R_U.png']",00C,0.0,,,,,,,,,,,,,,,,,,,,,,
101,627599021a371c538416d239,Chrome,,main_task_2,1.0,2.0,chris,"5/6/2022, 2:54:09 PM",cwrleqd2sft9acsfwuho,0.0-188.0,pilot_sona_afc2,,,,,,,,,6779.200000047684,,514026.0,0.0,207.0,30.0,retrieval,,,,,,,,,,,,,,,,,,,,,,,,"{'muct_id': '264', 'lighting': 't', 'race_guess': 'w', 'gender_guess': 'm', 'quality': '3', 'quality_eyes': '3', 'quality_mouth': '3', 'quality_ears': '3', 'quality_hair': '3', 'quality_neck': '3', 'facial_hair': '0.0', 'notes': None, 'race_common': 'white', 'gender_common': 'man'}","{'muct_id': '260', 'lighting': 't', 'race_guess': 'b', 'gender_guess': 'm', 'quality': '3', 'quality_eyes': '3', 'quality_mouth': '3', 'quality_ears': '3', 'quality_hair': '3', 'quality_neck': '3', 'facial_hair': '4.0', 'notes': 'beard', 'race_common': 'black', 'gender_common': 'man'}",man,094,0.0,0.8873373866081238,white,00C,C,105,oddity,man,091,1.0,0.8096175789833069,33.0,50R,U,black,00C,U,71.0,"['../stimuli/version1_gray_lm/id094_00C_C.png', '../stimuli/version1_gray_lm/id091_00C_U.png']",50L,-50.0,,,,,,,,,,,,,,,,,,,,,,
102,627599081a371c538416d23a,Chrome,,main_task_2,1.0,2.0,chris,"5/6/2022, 2:54:15 PM",cwrleqd2sft9acsfwuho,0.0-190.0,pilot_sona_afc2,,,,,,,,,5326.800000190735,,519850.0,0.0,209.0,31.0,retrieval,,,,,,,,,,,,,,,,,,,,,,,,"{'muct_id': '3', 'lighting': 's', 'race_guess': 'i', 'gender_guess': 'w', 'quality': '2', 'quality_eyes': '3', 'quality_mouth': '3', 'quality_ears': '3', 'quality_hair': '2', 'quality_neck': '3', 'facial_hair': '0.0', 'notes': 'hair', 'race_common': 'white', 'gender_common': 'woman'}","{'muct_id': '1', 'lighting': 'q', 'race_guess': 'b', 'gender_guess': 'm', 'quality': '3', 'quality_eyes': '3', 'quality_mouth': '3', 'quality_ears': '3', 'quality_hair': '3', 'quality_neck': '3', 'facial_hair': '1.0', 'notes': None, 'race_common': 'black', 'gender_common': 'man'}",woman,003,0.0,0.8017754554748535,white,50R,D,107,oddity,man,001,1.0,0.8537633419036865,9.0,50L,C,black,00C,C,75.0,"['../stimuli/version1_gray_lm/id003_50R_D.png', '../stimuli/version1_gray_lm/id001_00C_C.png']",50R,50.0,,,,,,,,,,,,,,,,,,,,,,
103,627599121a371c538416d23b,Chrome,,main_task_2,0.0,2.0,chris,"5/6/2022, 2:54:25 PM",cwrleqd2sft9acsfwuho,0.0-192.0,pilot_sona_afc2,,,,,,,,,,,530306.0,1.0,211.0,32.0,retrieval,,,,,,,,,,,,,,,,,,,,,,,,"{'muct_id': '66', 'lighting': 'r', 'race_guess': 'w', 'gender_guess': 'm', 'quality': '3', 'quality_eyes': '3', 'quality_mouth': '3', 'quality_ears': '3', 'quality_hair': '3', 'quality_neck': '3', 'facial_hair': '0.0', 'notes': None, 'race_common': 'white', 'gender_common': 'man'}","{'muct_id': '86', 'lighting': 'q', 'race_guess': 'b', 'gender_guess': 'w', 'quality': '3', 'quality_eyes': '3', 'quality_mouth': '3', 'quality_ears': '3', 'quality_hair': '3', 'quality_neck': '3', 'facial_hair': '0.0', 'notes': 'earrings', 'race_common': 'black', 'gender_common': 'woman'}",man,049,0.0,0.8740564584732056,white,00C,D,068,oddity,woman,059,1.0,0.8079833984375,4.0,50R,D,black,50R,D,,"['../stimuli/version1_gray_lm/id049_00C_D.png', '../stimuli/version1_gray_lm/id059_50R_D.png']",00C,0.0,,,,,,,,,,,,,,,,,,,,,,
104,627599191a371c538416d23c,Chrome,,main_task_2,1.0,1.0,chris,"5/6/2022, 2:54:33 PM",cwrleqd2sft9acsfwuho,0.0-194.0,pilot_sona_afc2,,,,,,,,,6384.099999904633,,537591.0,0.0,213.0,33.0,retrieval,,,,,,,,,,,,,,,,,,,,,,,,"{'muct_id': '24', 'lighting': 'q', 'race_guess': 'b', 'gender_guess': 'w', 'quality': '3', 'quality_eyes': '3', 'quality_mouth': '3', 'quality_ears': '3', 'quality_hair': '3', 'quality_neck': '3', 'facial_hair': '0.0', 'notes': None, 'race_common': 'black', 'gender_common': 'woman'}","{'muct_id': '203', 'lighting': 'u', 'race_guess': 'i', 'gender_guess': 'm', 'quality': '2', 'quality_eyes': '2', 'quality_mouth': '3', 'quality_ears': '3', 'quality_hair': '3', 'quality_neck': '3', 'facial_hair': '2.0', 'notes': 'mouth', 'race_common': 'white', 'gender_common': 'man'}",woman,020,1.0,0.8159578442573547,black,25R,C,093,oddity,man,063,0.0,0.8036709427833557,30.0,00C,D,white,50L,D,38,"['../stimuli/version1_gray_lm/id063_50L_D.png', '../stimuli/version1_gray_lm/id020_25R_C.png']",50L,-50.0,,,,,,,,,,,,,,,,,,,,,,
105,6275991e1a371c538416d23d,Chrome,,main_task_2,1.0,1.0,chris,"5/6/2022, 2:54:37 PM",cwrleqd2sft9acsfwuho,0.0-196.0,pilot_sona_afc2,,,,,,,,,3688.199999809265,,541871.0,0.0,215.0,34.0,retrieval,,,,,,,,,,,,,,,,,,,,,,,,"{'muct_id': '75', 'lighting': 'q', 'race_guess': 'w', 'gender_guess': 'm', 'quality': '3', 'quality_eyes': '3', 'quality_mouth': '3', 'quality_ears': '3', 'quality_hair': '3', 'quality_neck': '3', 'facial_hair': '4.0', 'notes': 'beard', 'race_common': 'white', 'gender_common': 'man'}","{'muct_id': '274', 'lighting': 't', 'race_guess': 'b', 'gender_guess': 'm', 'quality': '3', 'quality_eyes': '3', 'quality_mouth': '3', 'quality_ears': '3', 'quality_hair': '3', 'quality_neck': '3', 'facial_hair': '4.0', 'notes': None, 'race_common': 'black', 'gender_common': 'man'}",man,052,1.0,0.8178185820579529,white,50L,D,057,oddity,man,098,0.0,0.7806364893913269,10.0,50L,U,black,00C,U,18,"['../stimuli/version1_gray_lm/id098_00C_U.png', '../stimuli/version1_gray_lm/id052_50L_D.png']",50R,50.0,,,,,,,,,,,,,,,,,,,,,,
106,627599221a371c538416d23e,Chrome,,main_task_2,1.0,1.0,chris,"5/6/2022, 2:54:41 PM",cwrleqd2sft9acsfwuho,0.0-198.0,pilot_sona_afc2,,,,,,,,,3592.5999999046326,,546072.0,0.0,217.0,35.0,retrieval,,,,,,,,,,,,,,,,,,,,,,,,"{'muct_id': '255', 'lighting': 't', 'race_guess': 'w', 'gender_guess': 'm', 'quality': '3', 'quality_eyes': '3', 'quality_mouth': '3', 'quality_ears': '3', 'quality_hair': '3', 'quality_neck': '3', 'facial_hair': '2.0', 'notes': None, 'race_common': 'white', 'gender_common': 'man'}","{'muct_id': '435', 'lighting': 'x', 'race_guess': 'b', 'gender_guess': 'w', 'quality': '3', 'quality_eyes': '3', 'quality_mouth': '3', 'quality_ears': '3', 'quality_hair': '3', 'quality_neck': '3', 'facial_hair': '0.0', 'notes': 'bandana', 'race_common': 'black', 'gender_common': 'woman'}",man,089,1.0,0.8375347852706909,white,25R,U,126,oddity,woman,127,0.0,0.8157721757888794,1.0,25L,D,black,25R,D,24,"['../stimuli/version1_gray_lm/id127_25R_D.png', '../stimuli/version1_gray_lm/id089_25R_U.png']",50R,50.0,,,,,,,,,,,,,,,,,,,,,,
107,627599251a371c538416d23f,Chrome,,main_task_2,1.0,2.0,chris,"5/6/2022, 2:54:44 PM",cwrleqd2sft9acsfwuho,0.0-200.0,pilot_sona_afc2,,,,,,,,,2756.2999999523163,,549304.0,0.0,219.0,36.0,retrieval,,,,,,,,,,,,,,,,,,,,,,,,"{'muct_id': '76', 'lighting': 'q', 'race_guess': 'w', 'gender_guess': 'w', 'quality': '2', 'quality_eyes': '2', 'quality_mouth': '3', 'quality_ears': '2', 'quality_hair': '2', 'quality_neck': '3', 'facial_hair': '0.0', 'notes': 'hair', 'race_common': 'white', 'gender_common': 'woman'}","{'muct_id': '423', 'lighting': 'w', 'race_guess': 'b', 'gender_guess': 'm', 'quality': '3', 'quality_eyes': '3', 'quality_mouth': '3', 'quality_ears': '3', 'quality_hair': '3', 'quality_neck': '3', 'facial_hair': '1.0', 'notes': None, 'race_common': 'black', 'gender_common': 'man'}",woman,123,0.0,0.852514386177063,white,25L,D,128,oddity,man,121,1.0,0.8360601663589478,2.0,00C,C,black,00C,C,81,"['../stimuli/version1_gray_lm/id123_25L_D.png', '../stimuli/version1_gray_lm/id121_00C_C.png']",00C,0.0,,,,,,,,,,,,,,,,,,,,,,
