,_id,browser,choice,collection,correct,correct_response,database,datetime,experiment_id,internal_node_id,iteration,key_press,oddity_gender,oddity_identity,oddity_index,oddity_race,oddity_tiltLR,oddity_tiltUD,rt,stimulus,time_elapsed,timed_out,trial_index,trial_number,trial_type,typicals_gender,typicals_identity,typicals_indices,typicals_race,typicals_tiltsLR,typicals_tiltsUD,practice_threshold_met,oddity_meta,typicals_meta,button_pressed,last_trial_type,prediction,choice_category,choice_object,oddity_category,oddity_name,oddity_type,stimulus_response_map,typical_category,typical_indices,typical_name,variation_level,encoding_pair,encoding_type,gender,identity,meta,original_index,original_tiltLR,original_tiltUD,race,response,retrieval_condition,tiltLR,tiltUD,tilt_change,tilt_difference,original_tilt,encoding_accuracy,encoding_avg_rt,encoding_n_trials,experimental_duration,filler_accuracy,filler_avg_rt,filler_n_trials,params,retrieval_accuracy,retrieval_avg_rt,retrieval_n_trials,total_bonus,total_payment,age,gender_other,latinx,session_id,study_id,subject_id,meta_new,meta_old,new_gender,new_identity,new_index,new_race,new_tiltLR,new_tiltUD,old_encoding_pair,old_encoding_type,old_gender,old_identity,old_index,old_original_index,old_original_tiltLR,old_original_tiltUD,old_race,old_tiltLR,old_tiltUD,stimuli,oddity_mb,typicals_mb,new_mb,old_mb,old_tilt_change,old_tilt_difference
12815,626c4ff71a371c538416aeca,Chrome,1.0,main_task,1.0,1.0,chris,"4/29/2022, 3:52:07 PM",e2z0wjp17kbqvncson68,0.0-2.0-0.0,pilot_prolific_afc2_color,37,woman,108,0.0,latinx,00C,D,3572,"['../stimuli/version1_color/id108_00C_D.png', '../stimuli/version1_color/id110_50R_C.png', '../stimuli/version1_color/id110_50L_U.png']",207870.0,0.0,2.0,1.0,encoding_practice,woman,110,"[1, 2]",latinx,"['50R', '50L']","['C', 'U']",,,,,,,,,,,,,,,,,,,,,,,,,,,,,,,,,,,,,,,,,,,,,,,,,626c4f07ebd0736a3ad0eed5,626c2d4cb109dd263cf9c984,60fd772e3e1dd6055c9c11bc,,,,,,,,,,,,,,,,,,,,,0.9393647313117981,"[0.8368445038795471, 0.8689833879470825]",,,,
12816,626c4ffe1a371c538416aecb,Chrome,1.0,main_task,1.0,1.0,chris,"4/29/2022, 3:52:14 PM",e2z0wjp17kbqvncson68,0.0-2.1-0.1,pilot_prolific_afc2_color,37,woman,108,0.0,latinx,00C,C,4123,"['../stimuli/version1_color/id108_00C_C.png', '../stimuli/version1_color/id106_25L_D.png', '../stimuli/version1_color/id106_50R_U.png']",214454.0,0.0,4.0,2.0,encoding_practice,woman,106,"[1, 2]",latinx,"['25L', '50R']","['D', 'U']",,,,,,,,,,,,,,,,,,,,,,,,,,,,,,,,,,,,,,,,,,,,,,,,,626c4f07ebd0736a3ad0eed5,626c2d4cb109dd263cf9c984,60fd772e3e1dd6055c9c11bc,,,,,,,,,,,,,,,,,,,,,0.922171950340271,"[0.8585661053657532, 0.9077648520469666]",,,,
12817,626c50031a371c538416aecc,Chrome,3.0,main_task,1.0,3.0,chris,"4/29/2022, 3:52:18 PM",e2z0wjp17kbqvncson68,0.0-2.2-0.2,pilot_prolific_afc2_color,40,woman,106,2.0,latinx,25R,U,3678,"['../stimuli/version1_color/id110_50L_C.png', '../stimuli/version1_color/id110_00C_D.png', '../stimuli/version1_color/id106_25R_U.png']",219332.0,0.0,6.0,3.0,encoding_practice,woman,110,"[0, 1]",latinx,"['50L', '00C']","['C', 'D']",1.0,,,,,,,,,,,,,,,,,,,,,,,,,,,,,,,,,,,,,,,,,,,,,,,,626c4f07ebd0736a3ad0eed5,626c2d4cb109dd263cf9c984,60fd772e3e1dd6055c9c11bc,,,,,,,,,,,,,,,,,,,,,0.8683409690856934,"[0.8589649796485901, 0.8946543335914612]",,,,
12818,626c500c1a371c538416aecd,Chrome,1.0,main_task,1.0,1.0,chris,"4/29/2022, 3:52:28 PM",e2z0wjp17kbqvncson68,0.0-4.0,pilot_prolific_afc2_color,37,man,100,0.0,white,50L,D,2042,"['../stimuli/version1_color/id100_50L_D.png', '../stimuli/version1_color/id032_50R_C.png', '../stimuli/version1_color/id032_00C_U.png']",228972.0,0.0,9.0,1.0,encoding,man,032,"[1, 2]",white,"['50R', '00C']","['C', 'U']",,"{'muct_id': '280', 'lighting': 'u', 'race_guess': 'w', 'gender_guess': 'm', 'quality': '3', 'quality_eyes': '3', 'quality_mouth': '3', 'quality_ears': '3', 'quality_hair': '3', 'quality_neck': '3', 'facial_hair': '0.0', 'notes': None, 'race_common': 'white', 'gender_common': 'man'}","{'muct_id': '43', 'lighting': 'q', 'race_guess': 'w', 'gender_guess': 'm', 'quality': '3', 'quality_eyes': '3', 'quality_mouth': '3', 'quality_ears': '3', 'quality_hair': '3', 'quality_neck': '3', 'facial_hair': '0.0', 'notes': None, 'race_common': 'white', 'gender_common': 'man'}",,,,,,,,,,,,,,,,,,,,,,,,,,,,,,,,,,,,,,,,,,,,,,626c4f07ebd0736a3ad0eed5,626c2d4cb109dd263cf9c984,60fd772e3e1dd6055c9c11bc,,,,,,,,,,,,,,,,,,,,,0.894270122051239,"[0.8966609239578247, 0.8932823538780212]",,,,
12819,626c500f1a371c538416aece,Chrome,1.0,main_task,1.0,1.0,chris,"4/29/2022, 3:52:31 PM",e2z0wjp17kbqvncson68,0.0-6.0,pilot_prolific_afc2_color,37,woman,103,0.0,black,50L,C,1759,"['../stimuli/version1_color/id103_50L_C.png', '../stimuli/version1_color/id019_50R_D.png', '../stimuli/version1_color/id019_00C_U.png']",231770.0,0.0,11.0,2.0,encoding,woman,019,"[1, 2]",black,"['50R', '00C']","['D', 'U']",,"{'muct_id': '285', 'lighting': 'v', 'race_guess': 'b', 'gender_guess': 'w', 'quality': '3', 'quality_eyes': '3', 'quality_mouth': '3', 'quality_ears': '3', 'quality_hair': '3', 'quality_neck': '3', 'facial_hair': '0.0', 'notes': 'earrings', 'race_common': 'black', 'gender_common': 'woman'}","{'muct_id': '23', 'lighting': 'q', 'race_guess': 'b', 'gender_guess': 'u', 'quality': '3', 'quality_eyes': '3', 'quality_mouth': '3', 'quality_ears': '3', 'quality_hair': '3', 'quality_neck': '3', 'facial_hair': '0.0', 'notes': None, 'race_common': 'black', 'gender_common': 'woman'}",,,,,,,,,,,,,,,,,,,,,,,,,,,,,,,,,,,,,,,,,,,,,,626c4f07ebd0736a3ad0eed5,626c2d4cb109dd263cf9c984,60fd772e3e1dd6055c9c11bc,,,,,,,,,,,,,,,,,,,,,0.8680217266082764,"[0.9158408641815186, 0.8703259825706482]",,,,
12820,626c50111a371c538416aecf,Chrome,3.0,main_task,1.0,3.0,chris,"4/29/2022, 3:52:33 PM",e2z0wjp17kbqvncson68,0.0-8.0,pilot_prolific_afc2_color,40,man,105,2.0,black,25L,D,1291,"['../stimuli/version1_color/id086_00C_C.png', '../stimuli/version1_color/id086_25R_U.png', '../stimuli/version1_color/id105_25L_D.png']",234185.0,0.0,13.0,3.0,encoding,man,086,"[0, 1]",black,"['00C', '25R']","['C', 'U']",,"{'muct_id': '290', 'lighting': 't', 'race_guess': 'b', 'gender_guess': 'm', 'quality': '3', 'quality_eyes': '3', 'quality_mouth': '3', 'quality_ears': '3', 'quality_hair': '3', 'quality_neck': '3', 'facial_hair': '2.0', 'notes': None, 'race_common': 'black', 'gender_common': 'man'}","{'muct_id': '250', 'lighting': 't', 'race_guess': 'b', 'gender_guess': 'm', 'quality': '3', 'quality_eyes': '3', 'quality_mouth': '3', 'quality_ears': '3', 'quality_hair': '3', 'quality_neck': '3', 'facial_hair': '1.0', 'notes': None, 'race_common': 'black', 'gender_common': 'man'}",,,,,,,,,,,,,,,,,,,,,,,,,,,,,,,,,,,,,,,,,,,,,,626c4f07ebd0736a3ad0eed5,626c2d4cb109dd263cf9c984,60fd772e3e1dd6055c9c11bc,,,,,,,,,,,,,,,,,,,,,0.8621833920478821,"[0.9009056091308594, 0.8607013821601868]",,,,
12821,626c50151a371c538416aed0,Chrome,2.0,main_task,1.0,2.0,chris,"4/29/2022, 3:52:37 PM",e2z0wjp17kbqvncson68,0.0-10.0,pilot_prolific_afc2_color,39,woman,101,1.0,white,00C,C,2393,"['../stimuli/version1_color/id029_50R_D.png', '../stimuli/version1_color/id101_00C_C.png', '../stimuli/version1_color/id029_50L_U.png']",237504.0,0.0,15.0,4.0,encoding,woman,029,"[0, 2]",white,"['50R', '50L']","['D', 'U']",,"{'muct_id': '281', 'lighting': 't', 'race_guess': 'w', 'gender_guess': 'w', 'quality': '3', 'quality_eyes': '3', 'quality_mouth': '3', 'quality_ears': '3', 'quality_hair': '3', 'quality_neck': '3', 'facial_hair': '0.0', 'notes': None, 'race_common': 'white', 'gender_common': 'woman'}","{'muct_id': '39', 'lighting': 'r', 'race_guess': 'w', 'gender_guess': 'w', 'quality': '3', 'quality_eyes': '3', 'quality_mouth': '3', 'quality_ears': '3', 'quality_hair': '3', 'quality_neck': '3', 'facial_hair': '0.0', 'notes': 'earrings hair', 'race_common': 'white', 'gender_common': 'woman'}",,,,,,,,,,,,,,,,,,,,,,,,,,,,,,,,,,,,,,,,,,,,,,626c4f07ebd0736a3ad0eed5,626c2d4cb109dd263cf9c984,60fd772e3e1dd6055c9c11bc,,,,,,,,,,,,,,,,,,,,,0.9598024487495422,"[0.888931393623352, 0.875914990901947]",,,,
12822,626c50171a371c538416aed1,Chrome,3.0,main_task,1.0,3.0,chris,"4/29/2022, 3:52:39 PM",e2z0wjp17kbqvncson68,0.0-12.0,pilot_prolific_afc2_color,40,man,107,2.0,black,50R,U,1415,"['../stimuli/version1_color/id081_25L_C.png', '../stimuli/version1_color/id081_00C_D.png', '../stimuli/version1_color/id107_50R_U.png']",239799.0,0.0,17.0,5.0,encoding,man,081,"[0, 1]",black,"['25L', '00C']","['C', 'D']",,"{'muct_id': '297', 'lighting': 't', 'race_guess': 'b', 'gender_guess': 'm', 'quality': '3', 'quality_eyes': '3', 'quality_mouth': '3', 'quality_ears': '3', 'quality_hair': '3', 'quality_neck': '3', 'facial_hair': '4.0', 'notes': 'beard', 'race_common': 'black', 'gender_common': 'man'}","{'muct_id': '241', 'lighting': 't', 'race_guess': 'u', 'gender_guess': 'm', 'quality': '3', 'quality_eyes': '3', 'quality_mouth': '3', 'quality_ears': '3', 'quality_hair': '3', 'quality_neck': '3', 'facial_hair': '1.0', 'notes': 'mouth', 'race_common': 'black', 'gender_common': 'man'}",,,,,,,,,,,,,,,,,,,,,,,,,,,,,,,,,,,,,,,,,,,,,,626c4f07ebd0736a3ad0eed5,626c2d4cb109dd263cf9c984,60fd772e3e1dd6055c9c11bc,,,,,,,,,,,,,,,,,,,,,0.8867155909538269,"[0.8865429162979126, 0.9239322543144226]",,,,
12823,626c501b1a371c538416aed2,Chrome,3.0,main_task,1.0,3.0,chris,"4/29/2022, 3:52:43 PM",e2z0wjp17kbqvncson68,0.0-14.0,pilot_prolific_afc2_color,40,woman,111,2.0,black,25R,U,2926,"['../stimuli/version1_color/id077_00C_C.png', '../stimuli/version1_color/id077_50L_D.png', '../stimuli/version1_color/id111_25R_U.png']",243451.0,0.0,19.0,6.0,encoding,woman,077,"[0, 1]",black,"['00C', '50L']","['C', 'D']",,"{'muct_id': '405', 'lighting': 'w', 'race_guess': 'b', 'gender_guess': 'w', 'quality': '3', 'quality_eyes': '3', 'quality_mouth': '3', 'quality_ears': '3', 'quality_hair': '3', 'quality_neck': '3', 'facial_hair': '0.0', 'notes': 'hair earrings', 'race_common': 'black', 'gender_common': 'woman'}","{'muct_id': '235', 'lighting': 'u', 'race_guess': 'b', 'gender_guess': 'w', 'quality': '3', 'quality_eyes': '3', 'quality_mouth': '3', 'quality_ears': '3', 'quality_hair': '3', 'quality_neck': '3', 'facial_hair': '0.0', 'notes': 'earrings', 'race_common': 'black', 'gender_common': 'woman'}",,,,,,,,,,,,,,,,,,,,,,,,,,,,,,,,,,,,,,,,,,,,,,626c4f07ebd0736a3ad0eed5,626c2d4cb109dd263cf9c984,60fd772e3e1dd6055c9c11bc,,,,,,,,,,,,,,,,,,,,,0.8451844453811646,"[0.9151434302330017, 0.8397294282913208]",,,,
12824,626c501e1a371c538416aed3,Chrome,1.0,main_task,1.0,1.0,chris,"4/29/2022, 3:52:46 PM",e2z0wjp17kbqvncson68,0.0-16.0,pilot_prolific_afc2_color,37,woman,102,0.0,white,50R,U,2485,"['../stimuli/version1_color/id102_50R_U.png', '../stimuli/version1_color/id051_25L_D.png', '../stimuli/version1_color/id051_00C_C.png']",246825.0,0.0,21.0,7.0,encoding,woman,051,"[1, 2]",white,"['25L', '00C']","['D', 'C']",,"{'muct_id': '283', 'lighting': 't', 'race_guess': 'i', 'gender_guess': 'w', 'quality': '3', 'quality_eyes': '3', 'quality_mouth': '3', 'quality_ears': '3', 'quality_hair': '3', 'quality_neck': '3', 'facial_hair': '0.0', 'notes': 'pottu', 'race_common': 'white', 'gender_common': 'woman'}","{'muct_id': '74', 'lighting': 'q', 'race_guess': 'w', 'gender_guess': 'w', 'quality': '3', 'quality_eyes': '3', 'quality_mouth': '3', 'quality_ears': '3', 'quality_hair': '3', 'quality_neck': '3', 'facial_hair': '0.0', 'notes': None, 'race_common': 'white', 'gender_common': 'woman'}",,,,,,,,,,,,,,,,,,,,,,,,,,,,,,,,,,,,,,,,,,,,,,626c4f07ebd0736a3ad0eed5,626c2d4cb109dd263cf9c984,60fd772e3e1dd6055c9c11bc,,,,,,,,,,,,,,,,,,,,,0.918367862701416,"[0.9123376607894897, 0.9637415409088135]",,,,
12825,626c50201a371c538416aed4,Chrome,3.0,main_task,1.0,3.0,chris,"4/29/2022, 3:52:48 PM",e2z0wjp17kbqvncson68,0.0-18.0,pilot_prolific_afc2_color,40,man,104,2.0,white,00C,D,1599,"['../stimuli/version1_color/id052_50R_C.png', '../stimuli/version1_color/id052_25L_U.png', '../stimuli/version1_color/id104_00C_D.png']",249106.0,0.0,23.0,8.0,encoding,man,052,"[0, 1]",white,"['50R', '25L']","['C', 'U']",,"{'muct_id': '287', 'lighting': 't', 'race_guess': 'w', 'gender_guess': 'm', 'quality': '3', 'quality_eyes': '3', 'quality_mouth': '3', 'quality_ears': '3', 'quality_hair': '3', 'quality_neck': '3', 'facial_hair': '2.0', 'notes': None, 'race_common': 'white', 'gender_common': 'man'}","{'muct_id': '75', 'lighting': 'q', 'race_guess': 'w', 'gender_guess': 'm', 'quality': '3', 'quality_eyes': '3', 'quality_mouth': '3', 'quality_ears': '3', 'quality_hair': '3', 'quality_neck': '3', 'facial_hair': '4.0', 'notes': 'beard', 'race_common': 'white', 'gender_common': 'man'}",,,,,,,,,,,,,,,,,,,,,,,,,,,,,,,,,,,,,,,,,,,,,,626c4f07ebd0736a3ad0eed5,626c2d4cb109dd263cf9c984,60fd772e3e1dd6055c9c11bc,,,,,,,,,,,,,,,,,,,,,0.9103851914405823,"[0.8667957186698914, 0.9079580307006836]",,,,
12826,626c50241a371c538416aed5,Chrome,2.0,main_task,1.0,2.0,chris,"4/29/2022, 3:52:52 PM",e2z0wjp17kbqvncson68,0.0-20.0,pilot_prolific_afc2_color,39,woman,109,1.0,white,50R,U,2773,"['../stimuli/version1_color/id013_00C_D.png', '../stimuli/version1_color/id109_50R_U.png', '../stimuli/version1_color/id013_50L_C.png']",252567.0,0.0,25.0,9.0,encoding,woman,013,"[0, 2]",white,"['00C', '50L']","['D', 'C']",,"{'muct_id': '401', 'lighting': 'w', 'race_guess': 'w', 'gender_guess': 'w', 'quality': '3', 'quality_eyes': '3', 'quality_mouth': '3', 'quality_ears': '3', 'quality_hair': '3', 'quality_neck': '3', 'facial_hair': '0.0', 'notes': 'mouth', 'race_common': 'white', 'gender_common': 'woman'}","{'muct_id': '14', 'lighting': 'q', 'race_guess': 'w', 'gender_guess': 'w', 'quality': '3', 'quality_eyes': '3', 'quality_mouth': '3', 'quality_ears': '3', 'quality_hair': '3', 'quality_neck': '3', 'facial_hair': '0.0', 'notes': None, 'race_common': 'white', 'gender_common': 'woman'}",,,,,,,,,,,,,,,,,,,,,,,,,,,,,,,,,,,,,,,,,,,,,,626c4f07ebd0736a3ad0eed5,626c2d4cb109dd263cf9c984,60fd772e3e1dd6055c9c11bc,,,,,,,,,,,,,,,,,,,,,0.8757872581481934,"[0.9316293597221375, 0.8677021861076355]",,,,
12827,626c50271a371c538416aed6,Chrome,3.0,main_task,1.0,3.0,chris,"4/29/2022, 3:52:55 PM",e2z0wjp17kbqvncson68,0.0-22.0,pilot_prolific_afc2_color,40,man,113,2.0,black,50L,U,2171,"['../stimuli/version1_color/id098_00C_D.png', '../stimuli/version1_color/id098_50R_C.png', '../stimuli/version1_color/id113_50L_U.png']",255438.0,0.0,27.0,10.0,encoding,man,098,"[0, 1]",black,"['00C', '50R']","['D', 'C']",,"{'muct_id': '407', 'lighting': 'x', 'race_guess': 'u', 'gender_guess': 'm', 'quality': '3', 'quality_eyes': '3', 'quality_mouth': '3', 'quality_ears': '3', 'quality_hair': '3', 'quality_neck': '3', 'facial_hair': '3.0', 'notes': 'beard', 'race_common': 'black', 'gender_common': 'man'}","{'muct_id': '274', 'lighting': 't', 'race_guess': 'b', 'gender_guess': 'm', 'quality': '3', 'quality_eyes': '3', 'quality_mouth': '3', 'quality_ears': '3', 'quality_hair': '3', 'quality_neck': '3', 'facial_hair': '4.0', 'notes': None, 'race_common': 'black', 'gender_common': 'man'}",,,,,,,,,,,,,,,,,,,,,,,,,,,,,,,,,,,,,,,,,,,,,,626c4f07ebd0736a3ad0eed5,626c2d4cb109dd263cf9c984,60fd772e3e1dd6055c9c11bc,,,,,,,,,,,,,,,,,,,,,0.83770751953125,"[0.9086864590644836, 0.8641495108604431]",,,,
12828,626c502a1a371c538416aed7,Chrome,1.0,main_task,1.0,1.0,chris,"4/29/2022, 3:52:58 PM",e2z0wjp17kbqvncson68,0.0-24.0,pilot_prolific_afc2_color,37,man,112,0.0,black,50R,D,2975,"['../stimuli/version1_color/id112_50R_D.png', '../stimuli/version1_color/id004_00C_C.png', '../stimuli/version1_color/id004_50L_U.png']",259131.0,0.0,29.0,11.0,encoding,man,004,"[1, 2]",black,"['00C', '50L']","['C', 'U']",,"{'muct_id': '406', 'lighting': 'w', 'race_guess': 'b', 'gender_guess': 'm', 'quality': '3', 'quality_eyes': '3', 'quality_mouth': '3', 'quality_ears': '3', 'quality_hair': '3', 'quality_neck': '3', 'facial_hair': '1.0', 'notes': None, 'race_common': 'black', 'gender_common': 'man'}","{'muct_id': '4', 'lighting': 'q', 'race_guess': 'b', 'gender_guess': 'm', 'quality': '3', 'quality_eyes': '3', 'quality_mouth': '3', 'quality_ears': '3', 'quality_hair': '3', 'quality_neck': '3', 'facial_hair': '2.0', 'notes': None, 'race_common': 'black', 'gender_common': 'man'}",,,,,,,,,,,,,,,,,,,,,,,,,,,,,,,,,,,,,,,,,,,,,,626c4f07ebd0736a3ad0eed5,626c2d4cb109dd263cf9c984,60fd772e3e1dd6055c9c11bc,,,,,,,,,,,,,,,,,,,,,0.8530566096305847,"[0.9056004881858826, 0.8243815302848816]",,,,
12829,626c502e1a371c538416aed8,Chrome,3.0,main_task,1.0,3.0,chris,"4/29/2022, 3:53:02 PM",e2z0wjp17kbqvncson68,0.0-26.0,pilot_prolific_afc2_color,40,woman,114,2.0,white,00C,C,3111,"['../stimuli/version1_color/id076_50R_U.png', '../stimuli/version1_color/id076_50L_D.png', '../stimuli/version1_color/id114_00C_C.png']",262897.0,0.0,31.0,12.0,encoding,woman,076,"[0, 1]",white,"['50R', '50L']","['U', 'D']",,"{'muct_id': '410', 'lighting': 'w', 'race_guess': 'w', 'gender_guess': 'w', 'quality': '3', 'quality_eyes': '3', 'quality_mouth': '3', 'quality_ears': '3', 'quality_hair': '3', 'quality_neck': '3', 'facial_hair': '0.0', 'notes': 'makeup mouth', 'race_common': 'white', 'gender_common': 'woman'}","{'muct_id': '233', 'lighting': 'u', 'race_guess': 'w', 'gender_guess': 'w', 'quality': '3', 'quality_eyes': '3', 'quality_mouth': '3', 'quality_ears': '3', 'quality_hair': '3', 'quality_neck': '3', 'facial_hair': '0.0', 'notes': 'earrings', 'race_common': 'white', 'gender_common': 'woman'}",,,,,,,,,,,,,,,,,,,,,,,,,,,,,,,,,,,,,,,,,,,,,,626c4f07ebd0736a3ad0eed5,626c2d4cb109dd263cf9c984,60fd772e3e1dd6055c9c11bc,,,,,,,,,,,,,,,,,,,,,0.936838686466217,"[0.896736741065979, 0.8517772555351257]",,,,
12830,626c50321a371c538416aed9,Chrome,2.0,main_task,1.0,2.0,chris,"4/29/2022, 3:53:05 PM",e2z0wjp17kbqvncson68,0.0-28.0,pilot_prolific_afc2_color,39,man,115,1.0,white,00C,D,2434,"['../stimuli/version1_color/id037_50L_U.png', '../stimuli/version1_color/id115_00C_D.png', '../stimuli/version1_color/id037_25R_C.png']",266350.0,0.0,33.0,13.0,encoding,man,037,"[0, 2]",white,"['50L', '25R']","['U', 'C']",,"{'muct_id': '412', 'lighting': 'x', 'race_guess': 'w', 'gender_guess': 'm', 'quality': '3', 'quality_eyes': '3', 'quality_mouth': '3', 'quality_ears': '3', 'quality_hair': '3', 'quality_neck': '3', 'facial_hair': '0.0', 'notes': None, 'race_common': 'white', 'gender_common': 'man'}","{'muct_id': '48', 'lighting': 'w', 'race_guess': 'w', 'gender_guess': 'm', 'quality': '3', 'quality_eyes': '3', 'quality_mouth': '3', 'quality_ears': '3', 'quality_hair': '3', 'quality_neck': '3', 'facial_hair': '0.0', 'notes': None, 'race_common': 'white', 'gender_common': 'man'}",,,,,,,,,,,,,,,,,,,,,,,,,,,,,,,,,,,,,,,,,,,,,,626c4f07ebd0736a3ad0eed5,626c2d4cb109dd263cf9c984,60fd772e3e1dd6055c9c11bc,,,,,,,,,,,,,,,,,,,,,0.9565507769584656,"[0.8559420704841614, 0.8680460453033447]",,,,
12831,626c50341a371c538416aeda,Chrome,1.0,main_task,1.0,1.0,chris,"4/29/2022, 3:53:08 PM",e2z0wjp17kbqvncson68,0.0-30.0,pilot_prolific_afc2_color,37,man,118,0.0,black,00C,C,2015,"['../stimuli/version1_color/id118_00C_C.png', '../stimuli/version1_color/id139_25R_U.png', '../stimuli/version1_color/id139_25L_D.png']",269085.0,0.0,35.0,14.0,encoding,man,139,"[1, 2]",black,"['25R', '25L']","['U', 'D']",,"{'muct_id': '419', 'lighting': 'x', 'race_guess': 'b', 'gender_guess': 'm', 'quality': '3', 'quality_eyes': '3', 'quality_mouth': '3', 'quality_ears': '3', 'quality_hair': '3', 'quality_neck': '3', 'facial_hair': '1.0', 'notes': None, 'race_common': 'black', 'gender_common': 'man'}","{'muct_id': '623', 'lighting': 'y', 'race_guess': 'b', 'gender_guess': 'm', 'quality': '3', 'quality_eyes': '3', 'quality_mouth': '3', 'quality_ears': '3', 'quality_hair': '3', 'quality_neck': '3', 'facial_hair': '1.0', 'notes': 'mouth', 'race_common': 'black', 'gender_common': 'man'}",,,,,,,,,,,,,,,,,,,,,,,,,,,,,,,,,,,,,,,,,,,,,,626c4f07ebd0736a3ad0eed5,626c2d4cb109dd263cf9c984,60fd772e3e1dd6055c9c11bc,,,,,,,,,,,,,,,,,,,,,0.8881726861000061,"[0.899681031703949, 0.8451189994812012]",,,,
12832,626c50381a371c538416aedb,Chrome,3.0,main_task,1.0,3.0,chris,"4/29/2022, 3:53:12 PM",e2z0wjp17kbqvncson68,0.0-32.0,pilot_prolific_afc2_color,40,man,116,2.0,white,25R,D,2935,"['../stimuli/version1_color/id080_00C_U.png', '../stimuli/version1_color/id080_50L_C.png', '../stimuli/version1_color/id116_25R_D.png']",272554.0,0.0,37.0,15.0,encoding,man,080,"[0, 1]",white,"['00C', '50L']","['U', 'C']",,"{'muct_id': '414', 'lighting': 'w', 'race_guess': 'w', 'gender_guess': 'm', 'quality': '3', 'quality_eyes': '3', 'quality_mouth': '3', 'quality_ears': '3', 'quality_hair': '3', 'quality_neck': '3', 'facial_hair': '0.0', 'notes': None, 'race_common': 'white', 'gender_common': 'man'}","{'muct_id': '240', 'lighting': 'u', 'race_guess': 'w', 'gender_guess': 'm', 'quality': '3', 'quality_eyes': '3', 'quality_mouth': '3', 'quality_ears': '3', 'quality_hair': '3', 'quality_neck': '3', 'facial_hair': '0.0', 'notes': 'mouth', 'race_common': 'white', 'gender_common': 'man'}",,,,,,,,,,,,,,,,,,,,,,,,,,,,,,,,,,,,,,,,,,,,,,626c4f07ebd0736a3ad0eed5,626c2d4cb109dd263cf9c984,60fd772e3e1dd6055c9c11bc,,,,,,,,,,,,,,,,,,,,,0.8903762698173523,"[0.9088260531425476, 0.8795426487922668]",,,,
12833,626c503c1a371c538416aedc,Chrome,1.0,main_task,1.0,1.0,chris,"4/29/2022, 3:53:16 PM",e2z0wjp17kbqvncson68,0.0-34.0,pilot_prolific_afc2_color,37,man,117,0.0,black,00C,C,3443,"['../stimuli/version1_color/id117_00C_C.png', '../stimuli/version1_color/id056_50R_D.png', '../stimuli/version1_color/id056_25L_U.png']",276741.0,0.0,39.0,16.0,encoding,man,056,"[1, 2]",black,"['50R', '25L']","['D', 'U']",,"{'muct_id': '417', 'lighting': 'w', 'race_guess': 'b', 'gender_guess': 'm', 'quality': '3', 'quality_eyes': '3', 'quality_mouth': '3', 'quality_ears': '3', 'quality_hair': '3', 'quality_neck': '3', 'facial_hair': '1.0', 'notes': 'mouth', 'race_common': 'black', 'gender_common': 'man'}","{'muct_id': '82', 'lighting': 'q', 'race_guess': 'b', 'gender_guess': 'm', 'quality': '3', 'quality_eyes': '3', 'quality_mouth': '3', 'quality_ears': '3', 'quality_hair': '3', 'quality_neck': '3', 'facial_hair': '1.0', 'notes': None, 'race_common': 'black', 'gender_common': 'man'}",,,,,,,,,,,,,,,,,,,,,,,,,,,,,,,,,,,,,,,,,,,,,,626c4f07ebd0736a3ad0eed5,626c2d4cb109dd263cf9c984,60fd772e3e1dd6055c9c11bc,,,,,,,,,,,,,,,,,,,,,0.9157736301422119,"[0.8989049792289734, 0.8523693084716797]",,,,
12834,626c50421a371c538416aedd,Chrome,3.0,main_task,0.0,1.0,chris,"4/29/2022, 3:53:21 PM",e2z0wjp17kbqvncson68,0.0-36.0,pilot_prolific_afc2_color,40,man,119,0.0,black,50R,C,4837,"['../stimuli/version1_color/id119_50R_C.png', '../stimuli/version1_color/id030_00C_U.png', '../stimuli/version1_color/id030_50L_D.png']",282310.0,0.0,41.0,17.0,encoding,man,030,"[1, 2]",black,"['00C', '50L']","['U', 'D']",,"{'muct_id': '420', 'lighting': 'w', 'race_guess': 'b', 'gender_guess': 'm', 'quality': '3', 'quality_eyes': '3', 'quality_mouth': '3', 'quality_ears': '3', 'quality_hair': '3', 'quality_neck': '3', 'facial_hair': '0.0', 'notes': None, 'race_common': 'black', 'gender_common': 'man'}","{'muct_id': '41', 'lighting': 'r', 'race_guess': 'b', 'gender_guess': 'm', 'quality': '3', 'quality_eyes': '3', 'quality_mouth': '3', 'quality_ears': '3', 'quality_hair': '3', 'quality_neck': '3', 'facial_hair': '0.0', 'notes': None, 'race_common': 'black', 'gender_common': 'man'}",,,,,,,,,,,,,,,,,,,,,,,,,,,,,,,,,,,,,,,,,,,,,,626c4f07ebd0736a3ad0eed5,626c2d4cb109dd263cf9c984,60fd772e3e1dd6055c9c11bc,,,,,,,,,,,,,,,,,,,,,0.8575514554977417,"[0.9307907223701477, 0.8574519753456116]",,,,
12835,626c50461a371c538416aede,Chrome,3.0,main_task,1.0,3.0,chris,"4/29/2022, 3:53:26 PM",e2z0wjp17kbqvncson68,0.0-38.0,pilot_prolific_afc2_color,40,woman,120,2.0,black,50R,U,3740,"['../stimuli/version1_color/id140_00C_D.png', '../stimuli/version1_color/id140_25L_C.png', '../stimuli/version1_color/id120_50R_U.png']",286742.0,0.0,43.0,18.0,encoding,woman,140,"[0, 1]",black,"['00C', '25L']","['D', 'C']",,"{'muct_id': '421', 'lighting': 'x', 'race_guess': 'b', 'gender_guess': 'w', 'quality': '3', 'quality_eyes': '3', 'quality_mouth': '3', 'quality_ears': '3', 'quality_hair': '3', 'quality_neck': '3', 'facial_hair': '0.0', 'notes': None, 'race_common': 'black', 'gender_common': 'woman'}","{'muct_id': '624', 'lighting': 'y', 'race_guess': 'b', 'gender_guess': 'w', 'quality': '3', 'quality_eyes': '3', 'quality_mouth': '3', 'quality_ears': '3', 'quality_hair': '3', 'quality_neck': '3', 'facial_hair': '0.0', 'notes': 'headband, earring', 'race_common': 'black', 'gender_common': 'woman'}",,,,,,,,,,,,,,,,,,,,,,,,,,,,,,,,,,,,,,,,,,,,,,626c4f07ebd0736a3ad0eed5,626c2d4cb109dd263cf9c984,60fd772e3e1dd6055c9c11bc,,,,,,,,,,,,,,,,,,,,,0.8758217096328735,"[0.9266520738601685, 0.8567354083061218]",,,,
12836,626c50491a371c538416aedf,Chrome,1.0,main_task,1.0,1.0,chris,"4/29/2022, 3:53:29 PM",e2z0wjp17kbqvncson68,0.0-40.0,pilot_prolific_afc2_color,37,woman,125,0.0,white,00C,U,2285,"['../stimuli/version1_color/id125_00C_U.png', '../stimuli/version1_color/id017_50R_C.png', '../stimuli/version1_color/id017_25L_D.png']",290023.0,0.0,45.0,19.0,encoding,woman,017,"[1, 2]",white,"['50R', '25L']","['C', 'D']",,"{'muct_id': '433', 'lighting': 'x', 'race_guess': 'w', 'gender_guess': 'w', 'quality': '3', 'quality_eyes': '3', 'quality_mouth': '3', 'quality_ears': '3', 'quality_hair': '3', 'quality_neck': '3', 'facial_hair': '0.0', 'notes': None, 'race_common': 'white', 'gender_common': 'woman'}","{'muct_id': '19', 'lighting': 'r', 'race_guess': 'w', 'gender_guess': 'w', 'quality': '3', 'quality_eyes': '3', 'quality_mouth': '3', 'quality_ears': '3', 'quality_hair': '3', 'quality_neck': '3', 'facial_hair': '0.0', 'notes': None, 'race_common': 'white', 'gender_common': 'woman'}",,,,,,,,,,,,,,,,,,,,,,,,,,,,,,,,,,,,,,,,,,,,,,626c4f07ebd0736a3ad0eed5,626c2d4cb109dd263cf9c984,60fd772e3e1dd6055c9c11bc,,,,,,,,,,,,,,,,,,,,,0.8750087022781372,"[0.8951396346092224, 0.900945782661438]",,,,
12837,626c504c1a371c538416aee0,Chrome,3.0,main_task,1.0,3.0,chris,"4/29/2022, 3:53:32 PM",e2z0wjp17kbqvncson68,0.0-42.0,pilot_prolific_afc2_color,40,woman,123,2.0,white,25L,D,1925,"['../stimuli/version1_color/id042_00C_C.png', '../stimuli/version1_color/id042_50R_U.png', '../stimuli/version1_color/id123_25L_D.png']",292854.0,0.0,47.0,20.0,encoding,woman,042,"[0, 1]",white,"['00C', '50R']","['C', 'U']",,"{'muct_id': '76', 'lighting': 'q', 'race_guess': 'w', 'gender_guess': 'w', 'quality': '2', 'quality_eyes': '2', 'quality_mouth': '3', 'quality_ears': '2', 'quality_hair': '2', 'quality_neck': '3', 'facial_hair': '0.0', 'notes': 'hair', 'race_common': 'white', 'gender_common': 'woman'}","{'muct_id': '57', 'lighting': 'r', 'race_guess': 'b', 'gender_guess': 'w', 'quality': '3', 'quality_eyes': '3', 'quality_mouth': '3', 'quality_ears': '3', 'quality_hair': '3', 'quality_neck': '3', 'facial_hair': '0.0', 'notes': 'earrings', 'race_common': 'white', 'gender_common': 'woman'}",,,,,,,,,,,,,,,,,,,,,,,,,,,,,,,,,,,,,,,,,,,,,,626c4f07ebd0736a3ad0eed5,626c2d4cb109dd263cf9c984,60fd772e3e1dd6055c9c11bc,,,,,,,,,,,,,,,,,,,,,0.9265512824058533,"[0.9357995986938477, 0.8840591907501221]",,,,
12838,626c50521a371c538416aee1,Chrome,1.0,main_task,1.0,1.0,chris,"4/29/2022, 3:53:38 PM",e2z0wjp17kbqvncson68,0.0-44.0,pilot_prolific_afc2_color,37,man,122,0.0,black,25R,C,5238,"['../stimuli/version1_color/id122_25R_C.png', '../stimuli/version1_color/id033_00C_D.png', '../stimuli/version1_color/id033_25L_U.png']",299108.0,0.0,49.0,21.0,encoding,man,033,"[1, 2]",black,"['00C', '25L']","['D', 'U']",,"{'muct_id': '425', 'lighting': 'x', 'race_guess': 'b', 'gender_guess': 'm', 'quality': '3', 'quality_eyes': '3', 'quality_mouth': '3', 'quality_ears': '3', 'quality_hair': '3', 'quality_neck': '3', 'facial_hair': '2.0', 'notes': None, 'race_common': 'black', 'gender_common': 'man'}","{'muct_id': '44', 'lighting': 'q', 'race_guess': 'u', 'gender_guess': 'm', 'quality': '3', 'quality_eyes': '3', 'quality_mouth': '3', 'quality_ears': '3', 'quality_hair': '3', 'quality_neck': '3', 'facial_hair': '2.0', 'notes': None, 'race_common': 'black', 'gender_common': 'man'}",,,,,,,,,,,,,,,,,,,,,,,,,,,,,,,,,,,,,,,,,,,,,,626c4f07ebd0736a3ad0eed5,626c2d4cb109dd263cf9c984,60fd772e3e1dd6055c9c11bc,,,,,,,,,,,,,,,,,,,,,0.8296898007392883,"[0.9188333749771118, 0.8640051484107971]",,,,
12839,626c50551a371c538416aee2,Chrome,3.0,main_task,1.0,3.0,chris,"4/29/2022, 3:53:41 PM",e2z0wjp17kbqvncson68,0.0-46.0,pilot_prolific_afc2_color,40,man,121,2.0,black,00C,U,2208,"['../stimuli/version1_color/id028_25R_D.png', '../stimuli/version1_color/id028_25L_C.png', '../stimuli/version1_color/id121_00C_U.png']",302192.0,0.0,51.0,22.0,encoding,man,028,"[0, 1]",black,"['25R', '25L']","['D', 'C']",,"{'muct_id': '423', 'lighting': 'w', 'race_guess': 'b', 'gender_guess': 'm', 'quality': '3', 'quality_eyes': '3', 'quality_mouth': '3', 'quality_ears': '3', 'quality_hair': '3', 'quality_neck': '3', 'facial_hair': '1.0', 'notes': None, 'race_common': 'black', 'gender_common': 'man'}","{'muct_id': '38', 'lighting': 'q', 'race_guess': 'b', 'gender_guess': 'm', 'quality': '3', 'quality_eyes': '3', 'quality_mouth': '3', 'quality_ears': '3', 'quality_hair': '3', 'quality_neck': '3', 'facial_hair': '2.0', 'notes': None, 'race_common': 'black', 'gender_common': 'man'}",,,,,,,,,,,,,,,,,,,,,,,,,,,,,,,,,,,,,,,,,,,,,,626c4f07ebd0736a3ad0eed5,626c2d4cb109dd263cf9c984,60fd772e3e1dd6055c9c11bc,,,,,,,,,,,,,,,,,,,,,0.8812434077262878,"[0.8796341419219971, 0.8956781625747681]",,,,
12840,626c50571a371c538416aee3,Chrome,1.0,main_task,1.0,1.0,chris,"4/29/2022, 3:53:43 PM",e2z0wjp17kbqvncson68,0.0-48.0,pilot_prolific_afc2_color,37,man,131,0.0,white,50R,C,1265,"['../stimuli/version1_color/id131_50R_C.png', '../stimuli/version1_color/id044_00C_D.png', '../stimuli/version1_color/id044_50L_U.png']",304216.0,0.0,53.0,23.0,encoding,man,044,"[1, 2]",white,"['00C', '50L']","['D', 'U']",,"{'muct_id': '442', 'lighting': 'x', 'race_guess': 'w', 'gender_guess': 'm', 'quality': '3', 'quality_eyes': '3', 'quality_mouth': '3', 'quality_ears': '3', 'quality_hair': '3', 'quality_neck': '3', 'facial_hair': '2.0', 'notes': None, 'race_common': 'white', 'gender_common': 'man'}","{'muct_id': '60', 'lighting': 's', 'race_guess': 'u', 'gender_guess': 'm', 'quality': '3', 'quality_eyes': '3', 'quality_mouth': '3', 'quality_ears': '3', 'quality_hair': '3', 'quality_neck': '3', 'facial_hair': '2.0', 'notes': None, 'race_common': 'white', 'gender_common': 'man'}",,,,,,,,,,,,,,,,,,,,,,,,,,,,,,,,,,,,,,,,,,,,,,626c4f07ebd0736a3ad0eed5,626c2d4cb109dd263cf9c984,60fd772e3e1dd6055c9c11bc,,,,,,,,,,,,,,,,,,,,,0.8793664574623108,"[0.9343699216842651, 0.863588809967041]",,,,
12841,626c505a1a371c538416aee4,Chrome,2.0,main_task,1.0,2.0,chris,"4/29/2022, 3:53:46 PM",e2z0wjp17kbqvncson68,0.0-50.0,pilot_prolific_afc2_color,39,woman,141,1.0,white,25L,U,2170,"['../stimuli/version1_color/id018_00C_C.png', '../stimuli/version1_color/id141_25L_U.png', '../stimuli/version1_color/id018_50R_D.png']",307048.0,0.0,55.0,24.0,encoding,woman,018,"[0, 2]",white,"['00C', '50R']","['C', 'D']",,"{'muct_id': '77', 'lighting': 's', 'race_guess': 'w', 'gender_guess': 'w', 'quality': '3', 'quality_eyes': '3', 'quality_mouth': '3', 'quality_ears': '3', 'quality_hair': '3', 'quality_neck': '3', 'facial_hair': '0.0', 'notes': None, 'race_common': 'white', 'gender_common': 'woman'}","{'muct_id': '21', 'lighting': 'q', 'race_guess': 'w', 'gender_guess': 'w', 'quality': '3', 'quality_eyes': '3', 'quality_mouth': '3', 'quality_ears': '3', 'quality_hair': '3', 'quality_neck': '3', 'facial_hair': '0.0', 'notes': None, 'race_common': 'white', 'gender_common': 'woman'}",,,,,,,,,,,,,,,,,,,,,,,,,,,,,,,,,,,,,,,,,,,,,,626c4f07ebd0736a3ad0eed5,626c2d4cb109dd263cf9c984,60fd772e3e1dd6055c9c11bc,,,,,,,,,,,,,,,,,,,,,0.9048863649368286,"[0.9330214262008667, 0.9175060987472534]",,,,
12842,626c505e1a371c538416aee5,Chrome,1.0,main_task,1.0,1.0,chris,"4/29/2022, 3:53:50 PM",e2z0wjp17kbqvncson68,0.0-52.0,pilot_prolific_afc2_color,37,man,145,0.0,white,25R,C,3129,"['../stimuli/version1_color/id145_25R_C.png', '../stimuli/version1_color/id049_00C_D.png', '../stimuli/version1_color/id049_25L_U.png']",310736.0,0.0,57.0,25.0,encoding,man,049,"[1, 2]",white,"['00C', '25L']","['D', 'U']",,"{'muct_id': '230', 'lighting': 'u', 'race_guess': 'w', 'gender_guess': 'm', 'quality': '3', 'quality_eyes': '3', 'quality_mouth': '3', 'quality_ears': '3', 'quality_hair': '3', 'quality_neck': '3', 'facial_hair': '0.0', 'notes': 'hair', 'race_common': 'white', 'gender_common': 'man'}","{'muct_id': '66', 'lighting': 'r', 'race_guess': 'w', 'gender_guess': 'm', 'quality': '3', 'quality_eyes': '3', 'quality_mouth': '3', 'quality_ears': '3', 'quality_hair': '3', 'quality_neck': '3', 'facial_hair': '0.0', 'notes': None, 'race_common': 'white', 'gender_common': 'man'}",,,,,,,,,,,,,,,,,,,,,,,,,,,,,,,,,,,,,,,,,,,,,,626c4f07ebd0736a3ad0eed5,626c2d4cb109dd263cf9c984,60fd772e3e1dd6055c9c11bc,,,,,,,,,,,,,,,,,,,,,0.8919171094894409,"[0.9565569162368774, 0.8791989684104919]",,,,
12843,626c50611a371c538416aee6,Chrome,3.0,main_task,0.0,1.0,chris,"4/29/2022, 3:53:53 PM",e2z0wjp17kbqvncson68,0.0-54.0,pilot_prolific_afc2_color,40,man,143,0.0,white,50L,C,2813,"['../stimuli/version1_color/id143_50L_C.png', '../stimuli/version1_color/id063_25R_U.png', '../stimuli/version1_color/id063_00C_D.png']",314161.0,0.0,59.0,26.0,encoding,man,063,"[1, 2]",white,"['25R', '00C']","['U', 'D']",,"{'muct_id': '90', 'lighting': 'q', 'race_guess': 'u', 'gender_guess': 'm', 'quality': '2', 'quality_eyes': '3', 'quality_mouth': '3', 'quality_ears': '2', 'quality_hair': '3', 'quality_neck': '3', 'facial_hair': '4.0', 'notes': 'beard', 'race_common': 'white', 'gender_common': 'man'}","{'muct_id': '203', 'lighting': 'u', 'race_guess': 'i', 'gender_guess': 'm', 'quality': '2', 'quality_eyes': '2', 'quality_mouth': '3', 'quality_ears': '3', 'quality_hair': '3', 'quality_neck': '3', 'facial_hair': '2.0', 'notes': 'mouth', 'race_common': 'white', 'gender_common': 'man'}",,,,,,,,,,,,,,,,,,,,,,,,,,,,,,,,,,,,,,,,,,,,,,626c4f07ebd0736a3ad0eed5,626c2d4cb109dd263cf9c984,60fd772e3e1dd6055c9c11bc,,,,,,,,,,,,,,,,,,,,,0.8640556931495667,"[0.8786788582801819, 0.9066365957260132]",,,,
12844,626c50651a371c538416aee7,Chrome,3.0,main_task,1.0,3.0,chris,"4/29/2022, 3:53:57 PM",e2z0wjp17kbqvncson68,0.0-56.0,pilot_prolific_afc2_color,40,woman,126,2.0,black,25L,D,2852,"['../stimuli/version1_color/id142_50R_C.png', '../stimuli/version1_color/id142_00C_U.png', '../stimuli/version1_color/id126_25L_D.png']",317531.0,0.0,61.0,27.0,encoding,woman,142,"[0, 1]",black,"['50R', '00C']","['C', 'U']",,"{'muct_id': '434', 'lighting': 'w', 'race_guess': 'b', 'gender_guess': 'w', 'quality': '3', 'quality_eyes': '3', 'quality_mouth': '3', 'quality_ears': '3', 'quality_hair': '3', 'quality_neck': '3', 'facial_hair': '0.0', 'notes': 'earrings', 'race_common': 'black', 'gender_common': 'woman'}","{'muct_id': '87', 'lighting': 'r', 'race_guess': 'b', 'gender_guess': 'w', 'quality': '3', 'quality_eyes': '3', 'quality_mouth': '3', 'quality_ears': '3', 'quality_hair': '3', 'quality_neck': '3', 'facial_hair': '0.0', 'notes': 'earrings hair', 'race_common': 'black', 'gender_common': 'woman'}",,,,,,,,,,,,,,,,,,,,,,,,,,,,,,,,,,,,,,,,,,,,,,626c4f07ebd0736a3ad0eed5,626c2d4cb109dd263cf9c984,60fd772e3e1dd6055c9c11bc,,,,,,,,,,,,,,,,,,,,,0.8628501296043396,"[0.9095288515090942, 0.9097681045532227]",,,,
12845,626c50671a371c538416aee8,Chrome,3.0,main_task,1.0,3.0,chris,"4/29/2022, 3:53:59 PM",e2z0wjp17kbqvncson68,0.0-58.0,pilot_prolific_afc2_color,40,man,124,2.0,black,25L,C,1905,"['../stimuli/version1_color/id055_00C_U.png', '../stimuli/version1_color/id055_50R_D.png', '../stimuli/version1_color/id124_25L_C.png']",319997.0,0.0,63.0,28.0,encoding,man,055,"[0, 1]",black,"['00C', '50R']","['U', 'D']",,"{'muct_id': '431', 'lighting': 'x', 'race_guess': 'b', 'gender_guess': 'u', 'quality': '3', 'quality_eyes': '3', 'quality_mouth': '3', 'quality_ears': '3', 'quality_hair': '3', 'quality_neck': '3', 'facial_hair': '0.0', 'notes': 'mouth', 'race_common': 'black', 'gender_common': 'man'}","{'muct_id': '81', 'lighting': 'q', 'race_guess': 'b', 'gender_guess': 'm', 'quality': '3', 'quality_eyes': '3', 'quality_mouth': '3', 'quality_ears': '3', 'quality_hair': '3', 'quality_neck': '3', 'facial_hair': '0.0', 'notes': None, 'race_common': 'black', 'gender_common': 'man'}",,,,,,,,,,,,,,,,,,,,,,,,,,,,,,,,,,,,,,,,,,,,,,626c4f07ebd0736a3ad0eed5,626c2d4cb109dd263cf9c984,60fd772e3e1dd6055c9c11bc,,,,,,,,,,,,,,,,,,,,,0.8731386661529541,"[0.8943000435829163, 0.8772072196006775]",,,,
12846,626c50691a371c538416aee9,Chrome,1.0,main_task,1.0,1.0,chris,"4/29/2022, 3:54:01 PM",e2z0wjp17kbqvncson68,0.0-60.0,pilot_prolific_afc2_color,37,man,146,0.0,white,25L,U,1764,"['../stimuli/version1_color/id146_25L_U.png', '../stimuli/version1_color/id047_00C_C.png', '../stimuli/version1_color/id047_50R_D.png']",322217.0,0.0,65.0,29.0,encoding,man,047,"[1, 2]",white,"['00C', '50R']","['C', 'D']",,"{'muct_id': '254', 'lighting': 'v', 'race_guess': 'w', 'gender_guess': 'm', 'quality': '2', 'quality_eyes': '2', 'quality_mouth': '3', 'quality_ears': '3', 'quality_hair': '2', 'quality_neck': '3', 'facial_hair': '0.0', 'notes': 'hair', 'race_common': 'white', 'gender_common': 'man'}","{'muct_id': '64', 'lighting': 'q', 'race_guess': 'w', 'gender_guess': 'm', 'quality': '3', 'quality_eyes': '3', 'quality_mouth': '3', 'quality_ears': '3', 'quality_hair': '3', 'quality_neck': '3', 'facial_hair': '0.0', 'notes': None, 'race_common': 'white', 'gender_common': 'man'}",,,,,,,,,,,,,,,,,,,,,,,,,,,,,,,,,,,,,,,,,,,,,,626c4f07ebd0736a3ad0eed5,626c2d4cb109dd263cf9c984,60fd772e3e1dd6055c9c11bc,,,,,,,,,,,,,,,,,,,,,0.8172279000282288,"[0.938542902469635, 0.8716260194778442]",,,,
12847,626c506d1a371c538416aeea,Chrome,2.0,main_task,1.0,2.0,chris,"4/29/2022, 3:54:05 PM",e2z0wjp17kbqvncson68,0.0-62.0,pilot_prolific_afc2_color,39,woman,127,1.0,black,00C,U,2837,"['../stimuli/version1_color/id046_25L_D.png', '../stimuli/version1_color/id127_00C_U.png', '../stimuli/version1_color/id046_25R_C.png']",325593.0,0.0,67.0,30.0,encoding,woman,046,"[0, 2]",black,"['25L', '25R']","['D', 'C']",,"{'muct_id': '435', 'lighting': 'x', 'race_guess': 'b', 'gender_guess': 'w', 'quality': '3', 'quality_eyes': '3', 'quality_mouth': '3', 'quality_ears': '3', 'quality_hair': '3', 'quality_neck': '3', 'facial_hair': '0.0', 'notes': 'bandana', 'race_common': 'black', 'gender_common': 'woman'}","{'muct_id': '63', 'lighting': 'q', 'race_guess': 'i', 'gender_guess': 'w', 'quality': '3', 'quality_eyes': '3', 'quality_mouth': '3', 'quality_ears': '3', 'quality_hair': '3', 'quality_neck': '3', 'facial_hair': '0.0', 'notes': None, 'race_common': 'black', 'gender_common': 'woman'}",,,,,,,,,,,,,,,,,,,,,,,,,,,,,,,,,,,,,,,,,,,,,,626c4f07ebd0736a3ad0eed5,626c2d4cb109dd263cf9c984,60fd772e3e1dd6055c9c11bc,,,,,,,,,,,,,,,,,,,,,0.880905270576477,"[0.9149270057678223, 0.8799632787704468]",,,,
12848,626c50711a371c538416aeeb,Chrome,2.0,main_task,1.0,2.0,chris,"4/29/2022, 3:54:09 PM",e2z0wjp17kbqvncson68,0.0-64.0,pilot_prolific_afc2_color,39,man,128,1.0,black,00C,C,3874,"['../stimuli/version1_color/id064_50R_U.png', '../stimuli/version1_color/id128_00C_C.png', '../stimuli/version1_color/id064_25L_D.png']",329984.0,0.0,69.0,31.0,encoding,man,064,"[0, 2]",black,"['50R', '25L']","['U', 'D']",,"{'muct_id': '436', 'lighting': 'w', 'race_guess': 'b', 'gender_guess': 'm', 'quality': '3', 'quality_eyes': '3', 'quality_mouth': '3', 'quality_ears': '3', 'quality_hair': '3', 'quality_neck': '3', 'facial_hair': '3.0', 'notes': 'beard', 'race_common': 'black', 'gender_common': 'man'}","{'muct_id': '204', 'lighting': 't', 'race_guess': 'b', 'gender_guess': 'm', 'quality': '3', 'quality_eyes': '3', 'quality_mouth': '3', 'quality_ears': '3', 'quality_hair': '3', 'quality_neck': '3', 'facial_hair': '1.0', 'notes': None, 'race_common': 'black', 'gender_common': 'man'}",,,,,,,,,,,,,,,,,,,,,,,,,,,,,,,,,,,,,,,,,,,,,,626c4f07ebd0736a3ad0eed5,626c2d4cb109dd263cf9c984,60fd772e3e1dd6055c9c11bc,,,,,,,,,,,,,,,,,,,,,0.8751547932624817,"[0.9467046856880188, 0.8925674557685852]",,,,
12849,626c50731a371c538416aeec,Chrome,3.0,main_task,1.0,3.0,chris,"4/29/2022, 3:54:11 PM",e2z0wjp17kbqvncson68,0.0-66.0,pilot_prolific_afc2_color,40,woman,148,2.0,white,00C,C,1608,"['../stimuli/version1_color/id084_25L_D.png', '../stimuli/version1_color/id084_25R_U.png', '../stimuli/version1_color/id148_00C_C.png']",332213.0,0.0,71.0,32.0,encoding,woman,084,"[0, 1]",white,"['25L', '25R']","['D', 'U']",,"{'muct_id': '415', 'lighting': 'w', 'race_guess': 'w', 'gender_guess': 'w', 'quality': '3', 'quality_eyes': '3', 'quality_mouth': '3', 'quality_ears': '3', 'quality_hair': '3', 'quality_neck': '3', 'facial_hair': '0.0', 'notes': None, 'race_common': 'white', 'gender_common': 'woman'}","{'muct_id': '248', 'lighting': 'u', 'race_guess': 'w', 'gender_guess': 'w', 'quality': '3', 'quality_eyes': '3', 'quality_mouth': '3', 'quality_ears': '3', 'quality_hair': '3', 'quality_neck': '3', 'facial_hair': '0.0', 'notes': None, 'race_common': 'white', 'gender_common': 'woman'}",,,,,,,,,,,,,,,,,,,,,,,,,,,,,,,,,,,,,,,,,,,,,,626c4f07ebd0736a3ad0eed5,626c2d4cb109dd263cf9c984,60fd772e3e1dd6055c9c11bc,,,,,,,,,,,,,,,,,,,,,0.9452927112579346,"[0.8942047357559204, 0.9350315928459167]",,,,
12850,626c50761a371c538416aeed,Chrome,1.0,main_task,1.0,1.0,chris,"4/29/2022, 3:54:14 PM",e2z0wjp17kbqvncson68,0.0-68.0,pilot_prolific_afc2_color,37,man,132,0.0,black,00C,D,2171,"['../stimuli/version1_color/id132_00C_D.png', '../stimuli/version1_color/id057_50L_U.png', '../stimuli/version1_color/id057_25R_C.png']",335110.0,0.0,73.0,33.0,encoding,man,057,"[1, 2]",black,"['50L', '25R']","['U', 'C']",,"{'muct_id': '450', 'lighting': 'w', 'race_guess': 'b', 'gender_guess': 'm', 'quality': '3', 'quality_eyes': '3', 'quality_mouth': '3', 'quality_ears': '3', 'quality_hair': '3', 'quality_neck': '3', 'facial_hair': '4.0', 'notes': 'mouth', 'race_common': 'black', 'gender_common': 'man'}","{'muct_id': '83', 'lighting': 'r', 'race_guess': 'b', 'gender_guess': 'm', 'quality': '3', 'quality_eyes': '3', 'quality_mouth': '3', 'quality_ears': '3', 'quality_hair': '3', 'quality_neck': '3', 'facial_hair': '3.0', 'notes': None, 'race_common': 'black', 'gender_common': 'man'}",,,,,,,,,,,,,,,,,,,,,,,,,,,,,,,,,,,,,,,,,,,,,,626c4f07ebd0736a3ad0eed5,626c2d4cb109dd263cf9c984,60fd772e3e1dd6055c9c11bc,,,,,,,,,,,,,,,,,,,,,0.9087568521499634,"[0.8343432545661926, 0.8522499799728394]",,,,
12851,626c50791a371c538416aeee,Chrome,3.0,main_task,1.0,3.0,chris,"4/29/2022, 3:54:17 PM",e2z0wjp17kbqvncson68,0.0-70.0,pilot_prolific_afc2_color,40,woman,150,2.0,white,25L,D,2141,"['../stimuli/version1_color/id031_00C_U.png', '../stimuli/version1_color/id031_25R_C.png', '../stimuli/version1_color/id150_25L_D.png']",337724.0,0.0,75.0,34.0,encoding,woman,031,"[0, 1]",white,"['00C', '25R']","['U', 'C']",,"{'muct_id': '422', 'lighting': 'w', 'race_guess': 'u', 'gender_guess': 'w', 'quality': '3', 'quality_eyes': '3', 'quality_mouth': '3', 'quality_ears': '3', 'quality_hair': '3', 'quality_neck': '3', 'facial_hair': '0.0', 'notes': 'mouth', 'race_common': 'white', 'gender_common': 'woman'}","{'muct_id': '42', 'lighting': 'q', 'race_guess': 'u', 'gender_guess': 'w', 'quality': '2', 'quality_eyes': '3', 'quality_mouth': '3', 'quality_ears': '2', 'quality_hair': '3', 'quality_neck': '3', 'facial_hair': '0.0', 'notes': 'mouth', 'race_common': 'white', 'gender_common': 'woman'}",,,,,,,,,,,,,,,,,,,,,,,,,,,,,,,,,,,,,,,,,,,,,,626c4f07ebd0736a3ad0eed5,626c2d4cb109dd263cf9c984,60fd772e3e1dd6055c9c11bc,,,,,,,,,,,,,,,,,,,,,0.8977207541465759,"[0.8994108438491821, 0.8761996030807495]",,,,
12852,626c507c1a371c538416aeef,Chrome,3.0,main_task,1.0,3.0,chris,"4/29/2022, 3:54:20 PM",e2z0wjp17kbqvncson68,0.0-72.0,pilot_prolific_afc2_color,40,man,149,2.0,white,25L,C,2093,"['../stimuli/version1_color/id073_00C_U.png', '../stimuli/version1_color/id073_25R_D.png', '../stimuli/version1_color/id149_25L_C.png']",340399.0,0.0,77.0,35.0,encoding,man,073,"[0, 1]",white,"['00C', '25R']","['U', 'D']",,"{'muct_id': '416', 'lighting': 'w', 'race_guess': 'w', 'gender_guess': 'm', 'quality': '3', 'quality_eyes': '3', 'quality_mouth': '3', 'quality_ears': '3', 'quality_hair': '3', 'quality_neck': '3', 'facial_hair': '2.0', 'notes': None, 'race_common': 'white', 'gender_common': 'man'}","{'muct_id': '225', 'lighting': 'u', 'race_guess': 'w', 'gender_guess': 'm', 'quality': '3', 'quality_eyes': '3', 'quality_mouth': '3', 'quality_ears': '3', 'quality_hair': '3', 'quality_neck': '3', 'facial_hair': '2.0', 'notes': None, 'race_common': 'white', 'gender_common': 'man'}",,,,,,,,,,,,,,,,,,,,,,,,,,,,,,,,,,,,,,,,,,,,,,626c4f07ebd0736a3ad0eed5,626c2d4cb109dd263cf9c984,60fd772e3e1dd6055c9c11bc,,,,,,,,,,,,,,,,,,,,,0.8819087147712708,"[0.9065766334533691, 0.901634693145752]",,,,
12853,626c507e1a371c538416aef0,Chrome,3.0,main_task,1.0,3.0,chris,"4/29/2022, 3:54:22 PM",e2z0wjp17kbqvncson68,0.0-74.0,pilot_prolific_afc2_color,40,woman,133,2.0,black,50R,U,1628,"['../stimuli/version1_color/id027_25L_D.png', '../stimuli/version1_color/id027_00C_C.png', '../stimuli/version1_color/id133_50R_U.png']",342501.0,0.0,79.0,36.0,encoding,woman,027,"[0, 1]",black,"['25L', '00C']","['D', 'C']",,"{'muct_id': '601', 'lighting': 'y', 'race_guess': 'b', 'gender_guess': 'w', 'quality': '3', 'quality_eyes': '3', 'quality_mouth': '3', 'quality_ears': '3', 'quality_hair': '3', 'quality_neck': '3', 'facial_hair': '0.0', 'notes': 'mouth', 'race_common': 'black', 'gender_common': 'woman'}","{'muct_id': '37', 'lighting': 'q', 'race_guess': 'b', 'gender_guess': 'w', 'quality': '3', 'quality_eyes': '3', 'quality_mouth': '3', 'quality_ears': '3', 'quality_hair': '3', 'quality_neck': '3', 'facial_hair': '0.0', 'notes': 'earrings', 'race_common': 'black', 'gender_common': 'woman'}",,,,,,,,,,,,,,,,,,,,,,,,,,,,,,,,,,,,,,,,,,,,,,626c4f07ebd0736a3ad0eed5,626c2d4cb109dd263cf9c984,60fd772e3e1dd6055c9c11bc,,,,,,,,,,,,,,,,,,,,,0.8833503127098083,"[0.8660000562667847, 0.8697958588600159]",,,,
12854,626c50801a371c538416aef1,Chrome,1.0,main_task,1.0,1.0,chris,"4/29/2022, 3:54:24 PM",e2z0wjp17kbqvncson68,0.0-76.0,pilot_prolific_afc2_color,37,man,137,0.0,black,00C,D,2212,"['../stimuli/version1_color/id137_00C_D.png', '../stimuli/version1_color/id072_50L_U.png', '../stimuli/version1_color/id072_25R_C.png']",345180.0,0.0,81.0,37.0,encoding,man,072,"[1, 2]",black,"['50L', '25R']","['U', 'C']",,"{'muct_id': '617', 'lighting': 'y', 'race_guess': 'b', 'gender_guess': 'w', 'quality': '3', 'quality_eyes': '3', 'quality_mouth': '3', 'quality_ears': '3', 'quality_hair': '3', 'quality_neck': '3', 'facial_hair': '0.0', 'notes': 'mouth', 'race_common': 'black', 'gender_common': 'man'}","{'muct_id': '224', 'lighting': 't', 'race_guess': 'u', 'gender_guess': 'm', 'quality': '3', 'quality_eyes': '3', 'quality_mouth': '3', 'quality_ears': '3', 'quality_hair': '3', 'quality_neck': '3', 'facial_hair': '0.0', 'notes': 'smile', 'race_common': 'black', 'gender_common': 'man'}",,,,,,,,,,,,,,,,,,,,,,,,,,,,,,,,,,,,,,,,,,,,,,626c4f07ebd0736a3ad0eed5,626c2d4cb109dd263cf9c984,60fd772e3e1dd6055c9c11bc,,,,,,,,,,,,,,,,,,,,,0.9309378266334534,"[0.8496934771537781, 0.8243244290351868]",,,,
12855,626c50831a371c538416aef2,Chrome,2.0,main_task,1.0,2.0,chris,"4/29/2022, 3:54:27 PM",e2z0wjp17kbqvncson68,0.0-78.0,pilot_prolific_afc2_color,39,woman,136,1.0,black,25L,D,2511,"['../stimuli/version1_color/id016_50R_U.png', '../stimuli/version1_color/id136_25L_D.png', '../stimuli/version1_color/id016_00C_C.png']",348100.0,0.0,83.0,38.0,encoding,woman,016,"[0, 2]",black,"['50R', '00C']","['U', 'C']",,"{'muct_id': '616', 'lighting': 'y', 'race_guess': 'b', 'gender_guess': 'w', 'quality': '3', 'quality_eyes': '3', 'quality_mouth': '3', 'quality_ears': '3', 'quality_hair': '3', 'quality_neck': '3', 'facial_hair': '0.0', 'notes': 'earrings', 'race_common': 'black', 'gender_common': 'woman'}","{'muct_id': '18', 'lighting': 'q', 'race_guess': 'b', 'gender_guess': 'w', 'quality': '3', 'quality_eyes': '3', 'quality_mouth': '3', 'quality_ears': '3', 'quality_hair': '3', 'quality_neck': '3', 'facial_hair': '0.0', 'notes': 'earrings', 'race_common': 'black', 'gender_common': 'woman'}",,,,,,,,,,,,,,,,,,,,,,,,,,,,,,,,,,,,,,,,,,,,,,626c4f07ebd0736a3ad0eed5,626c2d4cb109dd263cf9c984,60fd772e3e1dd6055c9c11bc,,,,,,,,,,,,,,,,,,,,,0.8811782598495483,"[0.8203945159912109, 0.8599392175674438]",,,,
12856,626c50851a371c538416aef3,Chrome,2.0,main_task,1.0,2.0,chris,"4/29/2022, 3:54:29 PM",e2z0wjp17kbqvncson68,0.0-80.0,pilot_prolific_afc2_color,39,woman,151,1.0,white,25L,U,1463,"['../stimuli/version1_color/id007_50R_D.png', '../stimuli/version1_color/id151_25L_U.png', '../stimuli/version1_color/id007_00C_C.png']",350241.0,0.0,85.0,39.0,encoding,woman,007,"[0, 2]",white,"['50R', '00C']","['D', 'C']",,"{'muct_id': '444', 'lighting': 'w', 'race_guess': 'w', 'gender_guess': 'w', 'quality': '3', 'quality_eyes': '3', 'quality_mouth': '3', 'quality_ears': '3', 'quality_hair': '3', 'quality_neck': '3', 'facial_hair': '0.0', 'notes': None, 'race_common': 'white', 'gender_common': 'woman'}","{'muct_id': '7', 'lighting': 's', 'race_guess': 'u', 'gender_guess': 'w', 'quality': '3', 'quality_eyes': '3', 'quality_mouth': '3', 'quality_ears': '3', 'quality_hair': '3', 'quality_neck': '3', 'facial_hair': '0.0', 'notes': None, 'race_common': 'white', 'gender_common': 'woman'}",,,,,,,,,,,,,,,,,,,,,,,,,,,,,,,,,,,,,,,,,,,,,,626c4f07ebd0736a3ad0eed5,626c2d4cb109dd263cf9c984,60fd772e3e1dd6055c9c11bc,,,,,,,,,,,,,,,,,,,,,0.8652878999710083,"[0.8889978528022766, 0.919296383857727]",,,,
12857,626c50881a371c538416aef4,Chrome,2.0,main_task,1.0,2.0,chris,"4/29/2022, 3:54:32 PM",e2z0wjp17kbqvncson68,0.0-82.0,pilot_prolific_afc2_color,39,woman,152,1.0,white,50R,D,1842,"['../stimuli/version1_color/id155_00C_C.png', '../stimuli/version1_color/id152_50R_D.png', '../stimuli/version1_color/id155_50L_U.png']",352594.0,0.0,87.0,40.0,encoding,woman,155,"[0, 2]",white,"['00C', '50L']","['C', 'U']",,"{'muct_id': '446', 'lighting': 'w', 'race_guess': 'w', 'gender_guess': 'w', 'quality': '3', 'quality_eyes': '3', 'quality_mouth': '3', 'quality_ears': '3', 'quality_hair': '3', 'quality_neck': '3', 'facial_hair': '0.0', 'notes': None, 'race_common': 'white', 'gender_common': 'woman'}","{'muct_id': '615', 'lighting': 'z', 'race_guess': 'w', 'gender_guess': 'w', 'quality': '3', 'quality_eyes': '3', 'quality_mouth': '3', 'quality_ears': '3', 'quality_hair': '3', 'quality_neck': '3', 'facial_hair': '0.0', 'notes': 'earrings', 'race_common': 'white', 'gender_common': 'woman'}",,,,,,,,,,,,,,,,,,,,,,,,,,,,,,,,,,,,,,,,,,,,,,626c4f07ebd0736a3ad0eed5,626c2d4cb109dd263cf9c984,60fd772e3e1dd6055c9c11bc,,,,,,,,,,,,,,,,,,,,,0.883617639541626,"[0.9354537129402161, 0.8696614503860474]",,,,
12858,626c508e1a371c538416aef5,Chrome,,main_task,,,chris,"4/29/2022, 3:54:38 PM",,0.0-84.0,pilot_prolific_afc2_color,,,,,,,,5693.699999999255,"<p style='font-size: 150%'><b>You have finished Part 1!</b></p><p>Nice job! On this section, you averaged <b>95% accuracy</b>.</p><p>You're on track to earn a good bonus. Keep up the good work!</p><p>Click 'Next' to continue to Part 2.</p>",358666.0,,89.0,,bonus_update,,,,,,,,,,0,encoding,2.94,,,,,,,,,,,,,,,,,,,,,,,,,,,,,,,,,,,,,,,,,,,626c4f07ebd0736a3ad0eed5,626c2d4cb109dd263cf9c984,60fd772e3e1dd6055c9c11bc,,,,,,,,,,,,,,,,,,,,,,,,,,
12859,626c50b51a371c538416aef6,Chrome,2.0,main_task,1.0,2.0,chris,"4/29/2022, 3:55:17 PM",e2z0wjp17kbqvncson68,0.0-86.0-0.0,pilot_prolific_afc2_color,39,,,1840.0,,,,3753,"['../stimuli/objectome/3010.jpeg', '../stimuli/objectome/1840.jpeg', '../stimuli/objectome/3036.jpeg']",398172.0,0.0,91.0,1.0,filler,,,,,,,,,,,,,planes,_19_flyingBoat,planes,_19_flyingBoat,within,"{'1': None, '2': None, '3': None}",planes,"[3010, 3036]",sopwith,V3,,,,,,,,,,,,,,,,,,,,,,,,,,,,,,,,,626c4f07ebd0736a3ad0eed5,626c2d4cb109dd263cf9c984,60fd772e3e1dd6055c9c11bc,,,,,,,,,,,,,,,,,,,,,,,,,,
12860,626c50bb1a371c538416aef7,Chrome,2.0,main_task,1.0,2.0,chris,"4/29/2022, 3:55:22 PM",e2z0wjp17kbqvncson68,0.0-87.0-0.0,pilot_prolific_afc2_color,39,,,2831.0,,,,4059,"['../stimuli/objectome/2992.jpeg', '../stimuli/objectome/2831.jpeg', '../stimuli/objectome/2985.jpeg']",403353.0,0.0,93.0,2.0,filler,,,,,,,,,,,,,planes,junkers88,planes,junkers88,within,"{'1': None, '2': None, '3': None}",planes,"[2992, 2985]",rdbarren,V3,,,,,,,,,,,,,,,,,,,,,,,,,,,,,,,,,626c4f07ebd0736a3ad0eed5,626c2d4cb109dd263cf9c984,60fd772e3e1dd6055c9c11bc,,,,,,,,,,,,,,,,,,,,,,,,,,
12861,626c50bd1a371c538416aef8,Chrome,2.0,main_task,1.0,2.0,chris,"4/29/2022, 3:55:25 PM",e2z0wjp17kbqvncson68,0.0-88.0-0.0,pilot_prolific_afc2_color,39,,,204.0,,,,1618,"['../stimuli/objectome/189.jpeg', '../stimuli/objectome/204.jpeg', '../stimuli/objectome/182.jpeg']",405766.0,0.0,95.0,3.0,filler,,,,,,,,,,,,,chairs,_014,chairs,_014,within,"{'1': None, '2': None, '3': None}",chairs,"[189, 182]",_010,V0,,,,,,,,,,,,,,,,,,,,,,,,,,,,,,,,,626c4f07ebd0736a3ad0eed5,626c2d4cb109dd263cf9c984,60fd772e3e1dd6055c9c11bc,,,,,,,,,,,,,,,,,,,,,,,,,,
12862,626c50c51a371c538416aef9,Chrome,2.0,main_task,1.0,2.0,chris,"4/29/2022, 3:55:33 PM",e2z0wjp17kbqvncson68,0.0-90.0,pilot_prolific_afc2_color,39,,,1488.0,,,,4500,"['../stimuli/objectome/2818.jpeg', '../stimuli/objectome/1488.jpeg', '../stimuli/objectome/2820.jpeg']",413635.0,0.0,98.0,4.0,filler,,,,,,,,,,,,,planes,_01_Airliner_2jetEngines,planes,_01_Airliner_2jetEngines,within,"{'1': None, '2': None, '3': None}",planes,"[2818, 2820]",junkers88,V3,,,,,,,,,,,,,,,,,,,,,,,,,,,,,,,,,626c4f07ebd0736a3ad0eed5,626c2d4cb109dd263cf9c984,60fd772e3e1dd6055c9c11bc,,,,,,,,,,,,,,,,,,,,,,,,,,
12863,626c50c81a371c538416aefa,Chrome,1.0,main_task,1.0,1.0,chris,"4/29/2022, 3:55:36 PM",e2z0wjp17kbqvncson68,0.0-92.0,pilot_prolific_afc2_color,37,,,1593.0,,,,1966,"['../stimuli/objectome/1593.jpeg', '../stimuli/objectome/1263.jpeg', '../stimuli/objectome/1278.jpeg']",416400.0,0.0,100.0,5.0,filler,,,,,,,,,,,,,chairs,_033,chairs,_033,within,"{'1': None, '2': None, '3': None}",chairs,"[1263, 1278]",_001,V3,,,,,,,,,,,,,,,,,,,,,,,,,,,,,,,,,626c4f07ebd0736a3ad0eed5,626c2d4cb109dd263cf9c984,60fd772e3e1dd6055c9c11bc,,,,,,,,,,,,,,,,,,,,,,,,,,
12864,626c50ca1a371c538416aefb,Chrome,1.0,main_task,1.0,1.0,chris,"4/29/2022, 3:55:38 PM",e2z0wjp17kbqvncson68,0.0-94.0,pilot_prolific_afc2_color,37,,,1334.0,,,,2293,"['../stimuli/objectome/1334.jpeg', '../stimuli/objectome/1546.jpeg', '../stimuli/objectome/1538.jpeg']",419264.0,0.0,102.0,6.0,filler,,,,,,,,,,,,,chairs,_008,chairs,_008,within,"{'1': None, '2': None, '3': None}",chairs,"[1546, 1538]",_031,V3,,,,,,,,,,,,,,,,,,,,,,,,,,,,,,,,,626c4f07ebd0736a3ad0eed5,626c2d4cb109dd263cf9c984,60fd772e3e1dd6055c9c11bc,,,,,,,,,,,,,,,,,,,,,,,,,,
12865,626c50ce1a371c538416aefc,Chrome,2.0,main_task,1.0,2.0,chris,"4/29/2022, 3:55:42 PM",e2z0wjp17kbqvncson68,0.0-96.0,pilot_prolific_afc2_color,39,,,1414.0,,,,3101,"['../stimuli/objectome/1470.jpeg', '../stimuli/objectome/1414.jpeg', '../stimuli/objectome/1468.jpeg']",422747.0,0.0,104.0,7.0,filler,,,,,,,,,,,,,chairs,_011,chairs,_011,within,"{'1': None, '2': None, '3': None}",chairs,"[1470, 1468]",_014,V3,,,,,,,,,,,,,,,,,,,,,,,,,,,,,,,,,626c4f07ebd0736a3ad0eed5,626c2d4cb109dd263cf9c984,60fd772e3e1dd6055c9c11bc,,,,,,,,,,,,,,,,,,,,,,,,,,
12866,626c50d21a371c538416aefd,Chrome,1.0,main_task,1.0,1.0,chris,"4/29/2022, 3:55:46 PM",e2z0wjp17kbqvncson68,0.0-98.0,pilot_prolific_afc2_color,37,,,2768.0,,,,3279,"['../stimuli/objectome/2768.jpeg', '../stimuli/objectome/1205.jpeg', '../stimuli/objectome/1227.jpeg']",426982.0,0.0,106.0,8.0,filler,,,,,,,,,,,,,animals,hedgehog,animals,hedgehog,within,"{'1': None, '2': None, '3': None}",animals,"[1205, 1227]",TURTLE_L,V3,,,,,,,,,,,,,,,,,,,,,,,,,,,,,,,,,626c4f07ebd0736a3ad0eed5,626c2d4cb109dd263cf9c984,60fd772e3e1dd6055c9c11bc,,,,,,,,,,,,,,,,,,,,,,,,,,
12867,626c50d41a371c538416aefe,Chrome,3.0,main_task,1.0,3.0,chris,"4/29/2022, 3:55:48 PM",e2z0wjp17kbqvncson68,0.0-100.0,pilot_prolific_afc2_color,40,,,1304.0,,,,1368,"['../stimuli/objectome/1592.jpeg', '../stimuli/objectome/1585.jpeg', '../stimuli/objectome/1304.jpeg']",429120.0,0.0,108.0,9.0,filler,,,,,,,,,,,,,chairs,_004,chairs,_004,within,"{'1': None, '2': None, '3': None}",chairs,"[1592, 1585]",_033,V3,,,,,,,,,,,,,,,,,,,,,,,,,,,,,,,,,626c4f07ebd0736a3ad0eed5,626c2d4cb109dd263cf9c984,60fd772e3e1dd6055c9c11bc,,,,,,,,,,,,,,,,,,,,,,,,,,
12868,626c50d61a371c538416aeff,Chrome,3.0,main_task,1.0,3.0,chris,"4/29/2022, 3:55:50 PM",e2z0wjp17kbqvncson68,0.0-102.0,pilot_prolific_afc2_color,40,,,1286.0,,,,1443,"['../stimuli/objectome/1475.jpeg', '../stimuli/objectome/1441.jpeg', '../stimuli/objectome/1286.jpeg']",431020.0,0.0,110.0,10.0,filler,,,,,,,,,,,,,chairs,_004,chairs,_004,within,"{'1': None, '2': None, '3': None}",chairs,"[1475, 1441]",_014,V3,,,,,,,,,,,,,,,,,,,,,,,,,,,,,,,,,626c4f07ebd0736a3ad0eed5,626c2d4cb109dd263cf9c984,60fd772e3e1dd6055c9c11bc,,,,,,,,,,,,,,,,,,,,,,,,,,
12869,626c50d91a371c538416af00,Chrome,2.0,main_task,1.0,2.0,chris,"4/29/2022, 3:55:53 PM",e2z0wjp17kbqvncson68,0.0-104.0,pilot_prolific_afc2_color,39,,,2763.0,,,,2176,"['../stimuli/objectome/946.jpeg', '../stimuli/objectome/2763.jpeg', '../stimuli/objectome/955.jpeg']",433557.0,0.0,112.0,11.0,filler,,,,,,,,,,,,,animals,hedgehog,animals,hedgehog,within,"{'1': None, '2': None, '3': None}",animals,"[946, 955]",GORILLA,V3,,,,,,,,,,,,,,,,,,,,,,,,,,,,,,,,,626c4f07ebd0736a3ad0eed5,626c2d4cb109dd263cf9c984,60fd772e3e1dd6055c9c11bc,,,,,,,,,,,,,,,,,,,,,,,,,,
12870,626c50dc1a371c538416af01,Chrome,1.0,main_task,1.0,1.0,chris,"4/29/2022, 3:55:55 PM",e2z0wjp17kbqvncson68,0.0-106.0,pilot_prolific_afc2_color,37,,,1207.0,,,,2316,"['../stimuli/objectome/1207.jpeg', '../stimuli/objectome/917.jpeg', '../stimuli/objectome/891.jpeg']",436362.0,0.0,114.0,12.0,filler,,,,,,,,,,,,,animals,TURTLE_L,animals,TURTLE_L,within,"{'1': None, '2': None, '3': None}",animals,"[917, 891]",ELEPHANT_M,V3,,,,,,,,,,,,,,,,,,,,,,,,,,,,,,,,,626c4f07ebd0736a3ad0eed5,626c2d4cb109dd263cf9c984,60fd772e3e1dd6055c9c11bc,,,,,,,,,,,,,,,,,,,,,,,,,,
12871,626c50de1a371c538416af02,Chrome,3.0,main_task,1.0,3.0,chris,"4/29/2022, 3:55:58 PM",e2z0wjp17kbqvncson68,0.0-108.0,pilot_prolific_afc2_color,40,,,1216.0,,,,1671,"['../stimuli/objectome/981.jpeg', '../stimuli/objectome/960.jpeg', '../stimuli/objectome/1216.jpeg']",438505.0,0.0,116.0,13.0,filler,,,,,,,,,,,,,animals,TURTLE_L,animals,TURTLE_L,within,"{'1': None, '2': None, '3': None}",animals,"[981, 960]",LIONESS,V3,,,,,,,,,,,,,,,,,,,,,,,,,,,,,,,,,626c4f07ebd0736a3ad0eed5,626c2d4cb109dd263cf9c984,60fd772e3e1dd6055c9c11bc,,,,,,,,,,,,,,,,,,,,,,,,,,
12872,626c50e01a371c538416af03,Chrome,3.0,main_task,1.0,3.0,chris,"4/29/2022, 3:56:00 PM",e2z0wjp17kbqvncson68,0.0-110.0,pilot_prolific_afc2_color,40,,,1457.0,,,,1258,"['../stimuli/objectome/1550.jpeg', '../stimuli/objectome/1533.jpeg', '../stimuli/objectome/1457.jpeg']",440602.0,0.0,118.0,14.0,filler,,,,,,,,,,,,,chairs,_014,chairs,_014,within,"{'1': None, '2': None, '3': None}",chairs,"[1550, 1533]",_031,V3,,,,,,,,,,,,,,,,,,,,,,,,,,,,,,,,,626c4f07ebd0736a3ad0eed5,626c2d4cb109dd263cf9c984,60fd772e3e1dd6055c9c11bc,,,,,,,,,,,,,,,,,,,,,,,,,,
12873,626c50e21a371c538416af04,Chrome,1.0,main_task,1.0,1.0,chris,"4/29/2022, 3:56:02 PM",e2z0wjp17kbqvncson68,0.0-112.0,pilot_prolific_afc2_color,37,,,916.0,,,,1481,"['../stimuli/objectome/916.jpeg', '../stimuli/objectome/1213.jpeg', '../stimuli/objectome/1225.jpeg']",442915.0,0.0,120.0,15.0,filler,,,,,,,,,,,,,animals,ELEPHANT_M,animals,ELEPHANT_M,within,"{'1': None, '2': None, '3': None}",animals,"[1213, 1225]",TURTLE_L,V3,,,,,,,,,,,,,,,,,,,,,,,,,,,,,,,,,626c4f07ebd0736a3ad0eed5,626c2d4cb109dd263cf9c984,60fd772e3e1dd6055c9c11bc,,,,,,,,,,,,,,,,,,,,,,,,,,
12874,626c50e51a371c538416af05,Chrome,2.0,main_task,1.0,2.0,chris,"4/29/2022, 3:56:05 PM",e2z0wjp17kbqvncson68,0.0-114.0,pilot_prolific_afc2_color,39,,,79.0,,,,1858,"['../stimuli/objectome/142.jpeg', '../stimuli/objectome/79.jpeg', '../stimuli/objectome/146.jpeg']",445451.0,0.0,122.0,16.0,filler,,,,,,,,,,,,,animals,GORILLA,animals,GORILLA,within,"{'1': None, '2': None, '3': None}",animals,"[142, 146]",TURTLE_L,V0,,,,,,,,,,,,,,,,,,,,,,,,,,,,,,,,,626c4f07ebd0736a3ad0eed5,626c2d4cb109dd263cf9c984,60fd772e3e1dd6055c9c11bc,,,,,,,,,,,,,,,,,,,,,,,,,,
12875,626c50e71a371c538416af06,Chrome,1.0,main_task,1.0,1.0,chris,"4/29/2022, 3:56:07 PM",e2z0wjp17kbqvncson68,0.0-116.0,pilot_prolific_afc2_color,37,,,927.0,,,,2265,"['../stimuli/objectome/927.jpeg', '../stimuli/objectome/2145.jpeg', '../stimuli/objectome/2156.jpeg']",448019.0,0.0,124.0,17.0,filler,,,,,,,,,,,,,animals,GORILLA,animals,GORILLA,within,"{'1': None, '2': None, '3': None}",animals,"[2145, 2156]",blCow,V3,,,,,,,,,,,,,,,,,,,,,,,,,,,,,,,,,626c4f07ebd0736a3ad0eed5,626c2d4cb109dd263cf9c984,60fd772e3e1dd6055c9c11bc,,,,,,,,,,,,,,,,,,,,,,,,,,
12876,626c50ea1a371c538416af07,Chrome,3.0,main_task,1.0,3.0,chris,"4/29/2022, 3:56:10 PM",e2z0wjp17kbqvncson68,0.0-118.0,pilot_prolific_afc2_color,40,,,2845.0,,,,2979,"['../stimuli/objectome/1488.jpeg', '../stimuli/objectome/1483.jpeg', '../stimuli/objectome/2845.jpeg']",451282.0,0.0,126.0,18.0,filler,,,,,,,,,,,,,planes,mig29,planes,mig29,within,"{'1': None, '2': None, '3': None}",planes,"[1488, 1483]",_01_Airliner_2jetEngines,V3,,,,,,,,,,,,,,,,,,,,,,,,,,,,,,,,,626c4f07ebd0736a3ad0eed5,626c2d4cb109dd263cf9c984,60fd772e3e1dd6055c9c11bc,,,,,,,,,,,,,,,,,,,,,,,,,,
12877,626c50ef1a371c538416af08,Chrome,3.0,main_task,1.0,3.0,chris,"4/29/2022, 3:56:15 PM",e2z0wjp17kbqvncson68,0.0-120.0,pilot_prolific_afc2_color,40,,,1619.0,,,,3701,"['../stimuli/objectome/3039.jpeg', '../stimuli/objectome/3026.jpeg', '../stimuli/objectome/1619.jpeg']",455474.0,0.0,128.0,19.0,filler,,,,,,,,,,,,,planes,_05_future,planes,_05_future,within,"{'1': None, '2': None, '3': None}",planes,"[3039, 3026]",sopwith,V3,,,,,,,,,,,,,,,,,,,,,,,,,,,,,,,,,626c4f07ebd0736a3ad0eed5,626c2d4cb109dd263cf9c984,60fd772e3e1dd6055c9c11bc,,,,,,,,,,,,,,,,,,,,,,,,,,
12878,626c50f31a371c538416af09,Chrome,2.0,main_task,1.0,2.0,chris,"4/29/2022, 3:56:19 PM",e2z0wjp17kbqvncson68,0.0-122.0,pilot_prolific_afc2_color,39,,,1846.0,,,,3654,"['../stimuli/objectome/2405.jpeg', '../stimuli/objectome/1846.jpeg', '../stimuli/objectome/2426.jpeg']",460081.0,0.0,130.0,20.0,filler,,,,,,,,,,,,,planes,_19_flyingBoat,planes,_19_flyingBoat,within,"{'1': None, '2': None, '3': None}",planes,"[2405, 2426]",f16,V3,,,,,,,,,,,,,,,,,,,,,,,,,,,,,,,,,626c4f07ebd0736a3ad0eed5,626c2d4cb109dd263cf9c984,60fd772e3e1dd6055c9c11bc,,,,,,,,,,,,,,,,,,,,,,,,,,
12879,626c50f71a371c538416af0a,Chrome,,main_task,,,chris,"4/29/2022, 3:56:23 PM",,0.0-124.0,pilot_prolific_afc2_color,,,,,,,,2697.699999999255,"<p style='font-size: 150%'><b>You have finished Part 2!</b></p><p>Nice job! On this section, you averaged <b>100% accuracy</b>.</p><p>You're on track to earn a good bonus. Keep up the good work!</p><p>Click 'Next' to continue to Part 3.</p>",463403.0,,132.0,,bonus_update,,,,,,,,,,0,filler,3.1500000000000004,,,,,,,,,,,,,,,,,,,,,,,,,,,,,,,,,,,,,,,,,,,626c4f07ebd0736a3ad0eed5,626c2d4cb109dd263cf9c984,60fd772e3e1dd6055c9c11bc,,,,,,,,,,,,,,,,,,,,,,,,,,
12880,626c51161a371c538416af0b,Chrome,2.0,main_task,1.0,2.0,chris,"4/29/2022, 4:56:55 PM",nwmxxufzojw6uc89wz6g,0.0-2.0-0.0,pilot_prolific_afc2_color,39,woman,108,1.0,latinx,50R,U,3085,"['../stimuli/version1_color/id106_25L_C.png', '../stimuli/version1_color/id108_50R_U.png', '../stimuli/version1_color/id106_00C_D.png']",63377.0,0.0,2.0,1.0,encoding_practice,woman,106,"[0, 2]",latinx,"['25L', '00C']","['C', 'D']",,,,,,,,,,,,,,,,,,,,,,,,,,,,,,,,,,,,,,,,,,,,,,,,,626c50cc088a461098c78b93,626c2d4cb109dd263cf9c983,6151f34082c574452b8af3b9,,,,,,,,,,,,,,,,,,,,,0.9293903112411499,"[0.8867736458778381, 0.9100476503372192]",,,,
12881,626c511b1a371c538416af0c,Chrome,3.0,main_task,1.0,3.0,chris,"4/29/2022, 4:56:59 PM",nwmxxufzojw6uc89wz6g,0.0-2.1-0.1,pilot_prolific_afc2_color,40,woman,110,2.0,latinx,50R,C,1570,"['../stimuli/version1_color/id106_50L_U.png', '../stimuli/version1_color/id106_00C_D.png', '../stimuli/version1_color/id110_50R_C.png']",67513.0,0.0,4.0,2.0,encoding_practice,woman,106,"[0, 1]",latinx,"['50L', '00C']","['U', 'D']",,,,,,,,,,,,,,,,,,,,,,,,,,,,,,,,,,,,,,,,,,,,,,,,,626c50cc088a461098c78b93,626c2d4cb109dd263cf9c983,6151f34082c574452b8af3b9,,,,,,,,,,,,,,,,,,,,,0.8368445038795471,"[0.8746533393859863, 0.9100476503372192]",,,,
12882,626c511e1a371c538416af0d,Chrome,3.0,main_task,1.0,3.0,chris,"4/29/2022, 4:57:02 PM",nwmxxufzojw6uc89wz6g,0.0-2.2-0.2,pilot_prolific_afc2_color,40,woman,110,2.0,latinx,25R,C,1420,"['../stimuli/version1_color/id106_00C_D.png', '../stimuli/version1_color/id106_25L_U.png', '../stimuli/version1_color/id110_25R_C.png']",70541.0,0.0,6.0,3.0,encoding_practice,woman,106,"[0, 1]",latinx,"['00C', '25L']","['D', 'U']",1.0,,,,,,,,,,,,,,,,,,,,,,,,,,,,,,,,,,,,,,,,,,,,,,,,626c50cc088a461098c78b93,626c2d4cb109dd263cf9c983,6151f34082c574452b8af3b9,,,,,,,,,,,,,,,,,,,,,0.8488848805427551,"[0.9100476503372192, 0.8962529897689819]",,,,
12883,626c51241a371c538416af0e,Chrome,3.0,main_task,1.0,3.0,chris,"4/29/2022, 4:57:09 PM",nwmxxufzojw6uc89wz6g,0.0-4.0,pilot_prolific_afc2_color,40,woman,103,2.0,black,25R,U,1215,"['../stimuli/version1_color/id027_25L_D.png', '../stimuli/version1_color/id027_00C_C.png', '../stimuli/version1_color/id103_25R_U.png']",77382.0,0.0,9.0,1.0,encoding,woman,027,"[0, 1]",black,"['25L', '00C']","['D', 'C']",,"{'muct_id': '285', 'lighting': 'v', 'race_guess': 'b', 'gender_guess': 'w', 'quality': '3', 'quality_eyes': '3', 'quality_mouth': '3', 'quality_ears': '3', 'quality_hair': '3', 'quality_neck': '3', 'facial_hair': '0.0', 'notes': 'earrings', 'race_common': 'black', 'gender_common': 'woman'}","{'muct_id': '37', 'lighting': 'q', 'race_guess': 'b', 'gender_guess': 'w', 'quality': '3', 'quality_eyes': '3', 'quality_mouth': '3', 'quality_ears': '3', 'quality_hair': '3', 'quality_neck': '3', 'facial_hair': '0.0', 'notes': 'earrings', 'race_common': 'black', 'gender_common': 'woman'}",,,,,,,,,,,,,,,,,,,,,,,,,,,,,,,,,,,,,,,,,,,,,,626c50cc088a461098c78b93,626c2d4cb109dd263cf9c983,6151f34082c574452b8af3b9,,,,,,,,,,,,,,,,,,,,,0.9253566861152649,"[0.8660000562667847, 0.8697958588600159]",,,,
12884,626c51281a371c538416af0f,Chrome,1.0,main_task,1.0,1.0,chris,"4/29/2022, 4:57:13 PM",nwmxxufzojw6uc89wz6g,0.0-6.0,pilot_prolific_afc2_color,37,man,105,0.0,black,00C,D,1783,"['../stimuli/version1_color/id105_00C_D.png', '../stimuli/version1_color/id098_50R_U.png', '../stimuli/version1_color/id098_50L_C.png']",80891.0,0.0,11.0,2.0,encoding,man,098,"[1, 2]",black,"['50R', '50L']","['U', 'C']",,"{'muct_id': '290', 'lighting': 't', 'race_guess': 'b', 'gender_guess': 'm', 'quality': '3', 'quality_eyes': '3', 'quality_mouth': '3', 'quality_ears': '3', 'quality_hair': '3', 'quality_neck': '3', 'facial_hair': '2.0', 'notes': None, 'race_common': 'black', 'gender_common': 'man'}","{'muct_id': '274', 'lighting': 't', 'race_guess': 'b', 'gender_guess': 'm', 'quality': '3', 'quality_eyes': '3', 'quality_mouth': '3', 'quality_ears': '3', 'quality_hair': '3', 'quality_neck': '3', 'facial_hair': '4.0', 'notes': None, 'race_common': 'black', 'gender_common': 'man'}",,,,,,,,,,,,,,,,,,,,,,,,,,,,,,,,,,,,,,,,,,,,,,626c50cc088a461098c78b93,626c2d4cb109dd263cf9c983,6151f34082c574452b8af3b9,,,,,,,,,,,,,,,,,,,,,0.9288856983184814,"[0.8785828351974487, 0.8389350175857544]",,,,
12885,626c512b1a371c538416af10,Chrome,1.0,main_task,1.0,1.0,chris,"4/29/2022, 3:57:15 PM",1ylw3wle94ly6jvjy78m,0.0-2.0-0.0,pilot_prolific_afc2_color,37,woman,106,0.0,latinx,25L,D,2814,"['../stimuli/version1_color/id106_25L_D.png', '../stimuli/version1_color/id108_00C_U.png', '../stimuli/version1_color/id108_25R_C.png']",47334.0,0.0,2.0,1.0,encoding_practice,woman,108,"[1, 2]",latinx,"['00C', '25R']","['U', 'C']",,,,,,,,,,,,,,,,,,,,,,,,,,,,,,,,,,,,,,,,,,,,,,,,,626c50ee9c0d22e1f3954789,626c2d4cb109dd263cf9c984,610c874b2f6d232ff21a5666,,,,,,,,,,,,,,,,,,,,,0.8585661053657532,"[0.9056383371353149, 0.9034711718559265]",,,,
12886,626c512c1a371c538416af11,Chrome,2.0,main_task,1.0,2.0,chris,"4/29/2022, 4:57:16 PM",nwmxxufzojw6uc89wz6g,0.0-8.0,pilot_prolific_afc2_color,39,man,100,1.0,white,00C,U,2536,"['../stimuli/version1_color/id099_25R_D.png', '../stimuli/version1_color/id100_00C_U.png', '../stimuli/version1_color/id099_25L_C.png']",84679.0,0.0,13.0,3.0,encoding,man,099,"[0, 2]",white,"['25R', '25L']","['D', 'C']",,"{'muct_id': '280', 'lighting': 'u', 'race_guess': 'w', 'gender_guess': 'm', 'quality': '3', 'quality_eyes': '3', 'quality_mouth': '3', 'quality_ears': '3', 'quality_hair': '3', 'quality_neck': '3', 'facial_hair': '0.0', 'notes': None, 'race_common': 'white', 'gender_common': 'man'}","{'muct_id': '278', 'lighting': 't', 'race_guess': 'w', 'gender_guess': 'm', 'quality': '3', 'quality_eyes': '3', 'quality_mouth': '3', 'quality_ears': '3', 'quality_hair': '3', 'quality_neck': '3', 'facial_hair': '0.0', 'notes': None, 'race_common': 'white', 'gender_common': 'man'}",,,,,,,,,,,,,,,,,,,,,,,,,,,,,,,,,,,,,,,,,,,,,,626c50cc088a461098c78b93,626c2d4cb109dd263cf9c983,6151f34082c574452b8af3b9,,,,,,,,,,,,,,,,,,,,,0.917294442653656,"[0.898278534412384, 0.9275579452514648]",,,,
12887,626c512f1a371c538416af12,Chrome,2.0,main_task,1.0,2.0,chris,"4/29/2022, 4:57:20 PM",nwmxxufzojw6uc89wz6g,0.0-10.0,pilot_prolific_afc2_color,39,woman,101,1.0,white,00C,C,1685,"['../stimuli/version1_color/id042_50R_D.png', '../stimuli/version1_color/id101_00C_C.png', '../stimuli/version1_color/id042_25L_U.png']",87935.0,0.0,15.0,4.0,encoding,woman,042,"[0, 2]",white,"['50R', '25L']","['D', 'U']",,"{'muct_id': '281', 'lighting': 't', 'race_guess': 'w', 'gender_guess': 'w', 'quality': '3', 'quality_eyes': '3', 'quality_mouth': '3', 'quality_ears': '3', 'quality_hair': '3', 'quality_neck': '3', 'facial_hair': '0.0', 'notes': None, 'race_common': 'white', 'gender_common': 'woman'}","{'muct_id': '57', 'lighting': 'r', 'race_guess': 'b', 'gender_guess': 'w', 'quality': '3', 'quality_eyes': '3', 'quality_mouth': '3', 'quality_ears': '3', 'quality_hair': '3', 'quality_neck': '3', 'facial_hair': '0.0', 'notes': 'earrings', 'race_common': 'white', 'gender_common': 'woman'}",,,,,,,,,,,,,,,,,,,,,,,,,,,,,,,,,,,,,,,,,,,,,,626c50cc088a461098c78b93,626c2d4cb109dd263cf9c983,6151f34082c574452b8af3b9,,,,,,,,,,,,,,,,,,,,,0.9598024487495422,"[0.8762431740760803, 0.8569894433021545]",,,,
12888,626c512f1a371c538416af13,Chrome,2.0,main_task,1.0,2.0,chris,"4/29/2022, 3:57:19 PM",1ylw3wle94ly6jvjy78m,0.0-2.1-0.1,pilot_prolific_afc2_color,39,woman,108,1.0,latinx,50R,D,1593,"['../stimuli/version1_color/id110_00C_U.png', '../stimuli/version1_color/id108_50R_D.png', '../stimuli/version1_color/id110_25L_C.png']",51387.0,0.0,4.0,2.0,encoding_practice,woman,110,"[0, 2]",latinx,"['00C', '25L']","['U', 'C']",,,,,,,,,,,,,,,,,,,,,,,,,,,,,,,,,,,,,,,,,,,,,,,,,626c50ee9c0d22e1f3954789,626c2d4cb109dd263cf9c984,610c874b2f6d232ff21a5666,,,,,,,,,,,,,,,,,,,,,0.8946268558502197,"[0.908989429473877, 0.8734636902809143]",,,,
12889,626c51321a371c538416af14,Chrome,3.0,main_task,1.0,3.0,chris,"4/29/2022, 4:57:23 PM",nwmxxufzojw6uc89wz6g,0.0-12.0,pilot_prolific_afc2_color,40,man,107,2.0,black,25L,U,1449,"['../stimuli/version1_color/id033_25R_C.png', '../stimuli/version1_color/id033_00C_D.png', '../stimuli/version1_color/id107_25L_U.png']",90909.0,0.0,17.0,5.0,encoding,man,033,"[0, 1]",black,"['25R', '00C']","['C', 'D']",,"{'muct_id': '297', 'lighting': 't', 'race_guess': 'b', 'gender_guess': 'm', 'quality': '3', 'quality_eyes': '3', 'quality_mouth': '3', 'quality_ears': '3', 'quality_hair': '3', 'quality_neck': '3', 'facial_hair': '4.0', 'notes': 'beard', 'race_common': 'black', 'gender_common': 'man'}","{'muct_id': '44', 'lighting': 'q', 'race_guess': 'u', 'gender_guess': 'm', 'quality': '3', 'quality_eyes': '3', 'quality_mouth': '3', 'quality_ears': '3', 'quality_hair': '3', 'quality_neck': '3', 'facial_hair': '2.0', 'notes': None, 'race_common': 'black', 'gender_common': 'man'}",,,,,,,,,,,,,,,,,,,,,,,,,,,,,,,,,,,,,,,,,,,,,,626c50cc088a461098c78b93,626c2d4cb109dd263cf9c983,6151f34082c574452b8af3b9,,,,,,,,,,,,,,,,,,,,,0.8591870069503784,"[0.8424559235572815, 0.9188333749771118]",,,,
12890,626c51331a371c538416af15,Chrome,1.0,main_task,1.0,1.0,chris,"4/29/2022, 3:57:23 PM",1ylw3wle94ly6jvjy78m,0.0-2.2-0.2,pilot_prolific_afc2_color,37,woman,110,0.0,latinx,50L,U,2062,"['../stimuli/version1_color/id110_50L_U.png', '../stimuli/version1_color/id106_25R_C.png', '../stimuli/version1_color/id106_00C_D.png']",54673.0,0.0,6.0,3.0,encoding_practice,woman,106,"[1, 2]",latinx,"['25R', '00C']","['C', 'D']",1.0,,,,,,,,,,,,,,,,,,,,,,,,,,,,,,,,,,,,,,,,,,,,,,,,626c50ee9c0d22e1f3954789,626c2d4cb109dd263cf9c984,610c874b2f6d232ff21a5666,,,,,,,,,,,,,,,,,,,,,0.8689833879470825,"[0.9017399549484253, 0.9100476503372192]",,,,
12891,626c51341a371c538416af16,Chrome,1.0,main_task,1.0,1.0,chris,"4/29/2022, 4:57:25 PM",nwmxxufzojw6uc89wz6g,0.0-14.0,pilot_prolific_afc2_color,37,woman,111,0.0,black,00C,D,1153,"['../stimuli/version1_color/id111_00C_D.png', '../stimuli/version1_color/id059_25R_U.png', '../stimuli/version1_color/id059_50L_C.png']",93180.0,0.0,19.0,6.0,encoding,woman,059,"[1, 2]",black,"['25R', '50L']","['U', 'C']",,"{'muct_id': '405', 'lighting': 'w', 'race_guess': 'b', 'gender_guess': 'w', 'quality': '3', 'quality_eyes': '3', 'quality_mouth': '3', 'quality_ears': '3', 'quality_hair': '3', 'quality_neck': '3', 'facial_hair': '0.0', 'notes': 'hair earrings', 'race_common': 'black', 'gender_common': 'woman'}","{'muct_id': '86', 'lighting': 'q', 'race_guess': 'b', 'gender_guess': 'w', 'quality': '3', 'quality_eyes': '3', 'quality_mouth': '3', 'quality_ears': '3', 'quality_hair': '3', 'quality_neck': '3', 'facial_hair': '0.0', 'notes': 'earrings', 'race_common': 'black', 'gender_common': 'woman'}",,,,,,,,,,,,,,,,,,,,,,,,,,,,,,,,,,,,,,,,,,,,,,626c50cc088a461098c78b93,626c2d4cb109dd263cf9c983,6151f34082c574452b8af3b9,,,,,,,,,,,,,,,,,,,,,0.9137482047080994,"[0.881012499332428, 0.8687270283699036]",,,,
12892,626c51371a371c538416af17,Chrome,1.0,main_task,1.0,1.0,chris,"4/29/2022, 4:57:28 PM",nwmxxufzojw6uc89wz6g,0.0-16.0,pilot_prolific_afc2_color,37,woman,102,0.0,white,00C,C,1887,"['../stimuli/version1_color/id102_00C_C.png', '../stimuli/version1_color/id013_50R_U.png', '../stimuli/version1_color/id013_25L_D.png']",96336.0,0.0,21.0,7.0,encoding,woman,013,"[1, 2]",white,"['50R', '25L']","['U', 'D']",,"{'muct_id': '283', 'lighting': 't', 'race_guess': 'i', 'gender_guess': 'w', 'quality': '3', 'quality_eyes': '3', 'quality_mouth': '3', 'quality_ears': '3', 'quality_hair': '3', 'quality_neck': '3', 'facial_hair': '0.0', 'notes': 'pottu', 'race_common': 'white', 'gender_common': 'woman'}","{'muct_id': '14', 'lighting': 'q', 'race_guess': 'w', 'gender_guess': 'w', 'quality': '3', 'quality_eyes': '3', 'quality_mouth': '3', 'quality_ears': '3', 'quality_hair': '3', 'quality_neck': '3', 'facial_hair': '0.0', 'notes': None, 'race_common': 'white', 'gender_common': 'woman'}",,,,,,,,,,,,,,,,,,,,,,,,,,,,,,,,,,,,,,,,,,,,,,626c50cc088a461098c78b93,626c2d4cb109dd263cf9c983,6151f34082c574452b8af3b9,,,,,,,,,,,,,,,,,,,,,0.9183671474456787,"[0.881290078163147, 0.8478129506111145]",,,,
12893,626c513a1a371c538416af18,Chrome,1.0,main_task,1.0,1.0,chris,"4/29/2022, 4:57:30 PM",nwmxxufzojw6uc89wz6g,0.0-18.0,pilot_prolific_afc2_color,37,man,104,0.0,white,25L,U,1527,"['../stimuli/version1_color/id104_25L_U.png', '../stimuli/version1_color/id052_00C_D.png', '../stimuli/version1_color/id052_50R_C.png']",98781.0,0.0,23.0,8.0,encoding,man,052,"[1, 2]",white,"['00C', '50R']","['D', 'C']",,"{'muct_id': '287', 'lighting': 't', 'race_guess': 'w', 'gender_guess': 'm', 'quality': '3', 'quality_eyes': '3', 'quality_mouth': '3', 'quality_ears': '3', 'quality_hair': '3', 'quality_neck': '3', 'facial_hair': '2.0', 'notes': None, 'race_common': 'white', 'gender_common': 'man'}","{'muct_id': '75', 'lighting': 'q', 'race_guess': 'w', 'gender_guess': 'm', 'quality': '3', 'quality_eyes': '3', 'quality_mouth': '3', 'quality_ears': '3', 'quality_hair': '3', 'quality_neck': '3', 'facial_hair': '4.0', 'notes': 'beard', 'race_common': 'white', 'gender_common': 'man'}",,,,,,,,,,,,,,,,,,,,,,,,,,,,,,,,,,,,,,,,,,,,,,626c50cc088a461098c78b93,626c2d4cb109dd263cf9c983,6151f34082c574452b8af3b9,,,,,,,,,,,,,,,,,,,,,0.8487163782119751,"[0.9167231321334839, 0.8667957186698914]",,,,
12894,626c513d1a371c538416af19,Chrome,3.0,main_task,1.0,3.0,chris,"4/29/2022, 4:57:34 PM",nwmxxufzojw6uc89wz6g,0.0-20.0,pilot_prolific_afc2_color,40,man,113,2.0,black,00C,D,1920,"['../stimuli/version1_color/id028_50R_U.png', '../stimuli/version1_color/id028_50L_C.png', '../stimuli/version1_color/id113_00C_D.png']",101859.0,0.0,25.0,9.0,encoding,man,028,"[0, 1]",black,"['50R', '50L']","['U', 'C']",,"{'muct_id': '407', 'lighting': 'x', 'race_guess': 'u', 'gender_guess': 'm', 'quality': '3', 'quality_eyes': '3', 'quality_mouth': '3', 'quality_ears': '3', 'quality_hair': '3', 'quality_neck': '3', 'facial_hair': '3.0', 'notes': 'beard', 'race_common': 'black', 'gender_common': 'man'}","{'muct_id': '38', 'lighting': 'q', 'race_guess': 'b', 'gender_guess': 'm', 'quality': '3', 'quality_eyes': '3', 'quality_mouth': '3', 'quality_ears': '3', 'quality_hair': '3', 'quality_neck': '3', 'facial_hair': '2.0', 'notes': None, 'race_common': 'black', 'gender_common': 'man'}",,,,,,,,,,,,,,,,,,,,,,,,,,,,,,,,,,,,,,,,,,,,,,626c50cc088a461098c78b93,626c2d4cb109dd263cf9c983,6151f34082c574452b8af3b9,,,,,,,,,,,,,,,,,,,,,0.9016724824905396,"[0.9127913117408752, 0.8786558508872986]",,,,
12895,626c513e1a371c538416af1a,Chrome,1.0,main_task,1.0,1.0,chris,"4/29/2022, 3:57:34 PM",1ylw3wle94ly6jvjy78m,0.0-4.0,pilot_prolific_afc2_color,37,man,105,0.0,black,25L,U,1191,"['../stimuli/version1_color/id105_25L_U.png', '../stimuli/version1_color/id091_00C_C.png', '../stimuli/version1_color/id091_50R_D.png']",66030.0,0.0,9.0,1.0,encoding,man,091,"[1, 2]",black,"['00C', '50R']","['C', 'D']",,"{'muct_id': '290', 'lighting': 't', 'race_guess': 'b', 'gender_guess': 'm', 'quality': '3', 'quality_eyes': '3', 'quality_mouth': '3', 'quality_ears': '3', 'quality_hair': '3', 'quality_neck': '3', 'facial_hair': '2.0', 'notes': None, 'race_common': 'black', 'gender_common': 'man'}","{'muct_id': '260', 'lighting': 't', 'race_guess': 'b', 'gender_guess': 'm', 'quality': '3', 'quality_eyes': '3', 'quality_mouth': '3', 'quality_ears': '3', 'quality_hair': '3', 'quality_neck': '3', 'facial_hair': '4.0', 'notes': 'beard', 'race_common': 'black', 'gender_common': 'man'}",,,,,,,,,,,,,,,,,,,,,,,,,,,,,,,,,,,,,,,,,,,,,,626c50ee9c0d22e1f3954789,626c2d4cb109dd263cf9c984,610c874b2f6d232ff21a5666,,,,,,,,,,,,,,,,,,,,,0.8827328681945801,"[0.9034920930862427, 0.8678160905838013]",,,,
12896,626c513f1a371c538416af1b,Chrome,3.0,main_task,1.0,3.0,chris,"4/29/2022, 4:57:36 PM",nwmxxufzojw6uc89wz6g,0.0-22.0,pilot_prolific_afc2_color,40,woman,114,2.0,white,00C,C,1284,"['../stimuli/version1_color/id153_50L_D.png', '../stimuli/version1_color/id153_50R_U.png', '../stimuli/version1_color/id114_00C_C.png']",104073.0,0.0,27.0,10.0,encoding,woman,153,"[0, 1]",white,"['50L', '50R']","['D', 'U']",,"{'muct_id': '410', 'lighting': 'w', 'race_guess': 'w', 'gender_guess': 'w', 'quality': '3', 'quality_eyes': '3', 'quality_mouth': '3', 'quality_ears': '3', 'quality_hair': '3', 'quality_neck': '3', 'facial_hair': '0.0', 'notes': 'makeup mouth', 'race_common': 'white', 'gender_common': 'woman'}","{'muct_id': '437', 'lighting': 'x', 'race_guess': 'w', 'gender_guess': 'w', 'quality': '3', 'quality_eyes': '3', 'quality_mouth': '3', 'quality_ears': '3', 'quality_hair': '3', 'quality_neck': '3', 'facial_hair': '0.0', 'notes': 'hair', 'race_common': 'white', 'gender_common': 'woman'}",,,,,,,,,,,,,,,,,,,,,,,,,,,,,,,,,,,,,,,,,,,,,,626c50cc088a461098c78b93,626c2d4cb109dd263cf9c983,6151f34082c574452b8af3b9,,,,,,,,,,,,,,,,,,,,,0.936838686466217,"[0.8963757753372192, 0.8815321326255798]",,,,
12897,626c51411a371c538416af1c,Chrome,2.0,main_task,1.0,2.0,chris,"4/29/2022, 3:57:37 PM",1ylw3wle94ly6jvjy78m,0.0-6.0,pilot_prolific_afc2_color,39,woman,101,1.0,white,25L,D,1398,"['../stimuli/version1_color/id018_00C_C.png', '../stimuli/version1_color/id101_25L_D.png', '../stimuli/version1_color/id018_25R_U.png']",68857.0,0.0,11.0,2.0,encoding,woman,018,"[0, 2]",white,"['00C', '25R']","['C', 'U']",,"{'muct_id': '281', 'lighting': 't', 'race_guess': 'w', 'gender_guess': 'w', 'quality': '3', 'quality_eyes': '3', 'quality_mouth': '3', 'quality_ears': '3', 'quality_hair': '3', 'quality_neck': '3', 'facial_hair': '0.0', 'notes': None, 'race_common': 'white', 'gender_common': 'woman'}","{'muct_id': '21', 'lighting': 'q', 'race_guess': 'w', 'gender_guess': 'w', 'quality': '3', 'quality_eyes': '3', 'quality_mouth': '3', 'quality_ears': '3', 'quality_hair': '3', 'quality_neck': '3', 'facial_hair': '0.0', 'notes': None, 'race_common': 'white', 'gender_common': 'woman'}",,,,,,,,,,,,,,,,,,,,,,,,,,,,,,,,,,,,,,,,,,,,,,626c50ee9c0d22e1f3954789,626c2d4cb109dd263cf9c984,610c874b2f6d232ff21a5666,,,,,,,,,,,,,,,,,,,,,0.9048404097557068,"[0.9330214262008667, 0.8974651098251343]",,,,
12898,626c51431a371c538416af1d,Chrome,3.0,main_task,1.0,3.0,chris,"4/29/2022, 4:57:39 PM",nwmxxufzojw6uc89wz6g,0.0-24.0,pilot_prolific_afc2_color,40,woman,109,2.0,white,25R,D,1961,"['../stimuli/version1_color/id076_00C_C.png', '../stimuli/version1_color/id076_25L_U.png', '../stimuli/version1_color/id109_25R_D.png']",107595.0,0.0,29.0,11.0,encoding,woman,076,"[0, 1]",white,"['00C', '25L']","['C', 'U']",,"{'muct_id': '401', 'lighting': 'w', 'race_guess': 'w', 'gender_guess': 'w', 'quality': '3', 'quality_eyes': '3', 'quality_mouth': '3', 'quality_ears': '3', 'quality_hair': '3', 'quality_neck': '3', 'facial_hair': '0.0', 'notes': 'mouth', 'race_common': 'white', 'gender_common': 'woman'}","{'muct_id': '233', 'lighting': 'u', 'race_guess': 'w', 'gender_guess': 'w', 'quality': '3', 'quality_eyes': '3', 'quality_mouth': '3', 'quality_ears': '3', 'quality_hair': '3', 'quality_neck': '3', 'facial_hair': '0.0', 'notes': 'earrings', 'race_common': 'white', 'gender_common': 'woman'}",,,,,,,,,,,,,,,,,,,,,,,,,,,,,,,,,,,,,,,,,,,,,,626c50cc088a461098c78b93,626c2d4cb109dd263cf9c983,6151f34082c574452b8af3b9,,,,,,,,,,,,,,,,,,,,,0.9041691422462463,"[0.9518227577209473, 0.8595909476280212]",,,,
12899,626c51431a371c538416af1e,Chrome,1.0,main_task,1.0,1.0,chris,"4/29/2022, 3:57:39 PM",1ylw3wle94ly6jvjy78m,0.0-8.0,pilot_prolific_afc2_color,37,man,100,0.0,white,50R,D,1652,"['../stimuli/version1_color/id100_50R_D.png', '../stimuli/version1_color/id032_50L_C.png', '../stimuli/version1_color/id032_00C_U.png']",71038.0,0.0,13.0,3.0,encoding,man,032,"[1, 2]",white,"['50L', '00C']","['C', 'U']",,"{'muct_id': '280', 'lighting': 'u', 'race_guess': 'w', 'gender_guess': 'm', 'quality': '3', 'quality_eyes': '3', 'quality_mouth': '3', 'quality_ears': '3', 'quality_hair': '3', 'quality_neck': '3', 'facial_hair': '0.0', 'notes': None, 'race_common': 'white', 'gender_common': 'man'}","{'muct_id': '43', 'lighting': 'q', 'race_guess': 'w', 'gender_guess': 'm', 'quality': '3', 'quality_eyes': '3', 'quality_mouth': '3', 'quality_ears': '3', 'quality_hair': '3', 'quality_neck': '3', 'facial_hair': '0.0', 'notes': None, 'race_common': 'white', 'gender_common': 'man'}",,,,,,,,,,,,,,,,,,,,,,,,,,,,,,,,,,,,,,,,,,,,,,626c50ee9c0d22e1f3954789,626c2d4cb109dd263cf9c984,610c874b2f6d232ff21a5666,,,,,,,,,,,,,,,,,,,,,0.8663081526756287,"[0.9239621758460999, 0.8932823538780212]",,,,
12900,626c51451a371c538416af1f,Chrome,3.0,main_task,1.0,3.0,chris,"4/29/2022, 3:57:41 PM",1ylw3wle94ly6jvjy78m,0.0-10.0,pilot_prolific_afc2_color,40,woman,103,2.0,black,50R,U,1019,"['../stimuli/version1_color/id005_25L_C.png', '../stimuli/version1_color/id005_00C_D.png', '../stimuli/version1_color/id103_50R_U.png']",72954.0,0.0,15.0,4.0,encoding,woman,005,"[0, 1]",black,"['25L', '00C']","['C', 'D']",,"{'muct_id': '285', 'lighting': 'v', 'race_guess': 'b', 'gender_guess': 'w', 'quality': '3', 'quality_eyes': '3', 'quality_mouth': '3', 'quality_ears': '3', 'quality_hair': '3', 'quality_neck': '3', 'facial_hair': '0.0', 'notes': 'earrings', 'race_common': 'black', 'gender_common': 'woman'}","{'muct_id': '5', 'lighting': 'q', 'race_guess': 'b', 'gender_guess': 'w', 'quality': '3', 'quality_eyes': '3', 'quality_mouth': '3', 'quality_ears': '3', 'quality_hair': '3', 'quality_neck': '3', 'facial_hair': '0.0', 'notes': 'hat', 'race_common': 'black', 'gender_common': 'woman'}",,,,,,,,,,,,,,,,,,,,,,,,,,,,,,,,,,,,,,,,,,,,,,626c50ee9c0d22e1f3954789,626c2d4cb109dd263cf9c984,610c874b2f6d232ff21a5666,,,,,,,,,,,,,,,,,,,,,0.8335375785827637,"[0.8990646600723267, 0.9452205896377563]",,,,
12901,626c51471a371c538416af20,Chrome,2.0,main_task,1.0,2.0,chris,"4/29/2022, 3:57:43 PM",1ylw3wle94ly6jvjy78m,0.0-12.0,pilot_prolific_afc2_color,39,woman,102,1.0,white,50R,C,1199,"['../stimuli/version1_color/id007_00C_U.png', '../stimuli/version1_color/id102_50R_C.png', '../stimuli/version1_color/id007_25L_D.png']",74843.0,0.0,17.0,5.0,encoding,woman,007,"[0, 2]",white,"['00C', '25L']","['U', 'D']",,"{'muct_id': '283', 'lighting': 't', 'race_guess': 'i', 'gender_guess': 'w', 'quality': '3', 'quality_eyes': '3', 'quality_mouth': '3', 'quality_ears': '3', 'quality_hair': '3', 'quality_neck': '3', 'facial_hair': '0.0', 'notes': 'pottu', 'race_common': 'white', 'gender_common': 'woman'}","{'muct_id': '7', 'lighting': 's', 'race_guess': 'u', 'gender_guess': 'w', 'quality': '3', 'quality_eyes': '3', 'quality_mouth': '3', 'quality_ears': '3', 'quality_hair': '3', 'quality_neck': '3', 'facial_hair': '0.0', 'notes': None, 'race_common': 'white', 'gender_common': 'woman'}",,,,,,,,,,,,,,,,,,,,,,,,,,,,,,,,,,,,,,,,,,,,,,626c50ee9c0d22e1f3954789,626c2d4cb109dd263cf9c984,610c874b2f6d232ff21a5666,,,,,,,,,,,,,,,,,,,,,0.8812729120254517,"[0.8950579166412354, 0.935487687587738]",,,,
12902,626c51481a371c538416af21,Chrome,3.0,main_task,1.0,3.0,chris,"4/29/2022, 3:57:44 PM",1ylw3wle94ly6jvjy78m,0.0-14.0,pilot_prolific_afc2_color,40,woman,111,2.0,black,00C,U,822,"['../stimuli/version1_color/id068_50L_D.png', '../stimuli/version1_color/id068_25R_C.png', '../stimuli/version1_color/id111_00C_U.png']",76478.0,0.0,19.0,6.0,encoding,woman,068,"[0, 1]",black,"['50L', '25R']","['D', 'C']",,"{'muct_id': '405', 'lighting': 'w', 'race_guess': 'b', 'gender_guess': 'w', 'quality': '3', 'quality_eyes': '3', 'quality_mouth': '3', 'quality_ears': '3', 'quality_hair': '3', 'quality_neck': '3', 'facial_hair': '0.0', 'notes': 'hair earrings', 'race_common': 'black', 'gender_common': 'woman'}","{'muct_id': '213', 'lighting': 'u', 'race_guess': 'b', 'gender_guess': 'w', 'quality': '3', 'quality_eyes': '3', 'quality_mouth': '3', 'quality_ears': '3', 'quality_hair': '3', 'quality_neck': '3', 'facial_hair': '0.0', 'notes': None, 'race_common': 'black', 'gender_common': 'woman'}",,,,,,,,,,,,,,,,,,,,,,,,,,,,,,,,,,,,,,,,,,,,,,626c50ee9c0d22e1f3954789,626c2d4cb109dd263cf9c984,610c874b2f6d232ff21a5666,,,,,,,,,,,,,,,,,,,,,0.9197322130203247,"[0.8797946572303772, 0.8633885383605957]",,,,
12903,626c514b1a371c538416af22,Chrome,1.0,main_task,0.0,2.0,chris,"4/29/2022, 3:57:47 PM",1ylw3wle94ly6jvjy78m,0.0-16.0,pilot_prolific_afc2_color,37,man,104,1.0,white,50L,C,1809,"['../stimuli/version1_color/id093_00C_U.png', '../stimuli/version1_color/id104_50L_C.png', '../stimuli/version1_color/id093_25R_D.png']",78986.0,0.0,21.0,7.0,encoding,man,093,"[0, 2]",white,"['00C', '25R']","['U', 'D']",,"{'muct_id': '287', 'lighting': 't', 'race_guess': 'w', 'gender_guess': 'm', 'quality': '3', 'quality_eyes': '3', 'quality_mouth': '3', 'quality_ears': '3', 'quality_hair': '3', 'quality_neck': '3', 'facial_hair': '2.0', 'notes': None, 'race_common': 'white', 'gender_common': 'man'}","{'muct_id': '263', 'lighting': 'u', 'race_guess': 'w', 'gender_guess': 'm', 'quality': '3', 'quality_eyes': '3', 'quality_mouth': '3', 'quality_ears': '3', 'quality_hair': '3', 'quality_neck': '3', 'facial_hair': '2.0', 'notes': None, 'race_common': 'white', 'gender_common': 'man'}",,,,,,,,,,,,,,,,,,,,,,,,,,,,,,,,,,,,,,,,,,,,,,626c50ee9c0d22e1f3954789,626c2d4cb109dd263cf9c984,610c874b2f6d232ff21a5666,,,,,,,,,,,,,,,,,,,,,0.8845619559288025,"[0.8839811682701111, 0.8837978839874268]",,,,
12904,626c514b1a371c538416af23,Chrome,2.0,main_task,1.0,2.0,chris,"4/29/2022, 4:57:48 PM",nwmxxufzojw6uc89wz6g,0.0-26.0,pilot_prolific_afc2_color,39,man,112,1.0,black,25L,U,7098,"['../stimuli/version1_color/id065_50R_C.png', '../stimuli/version1_color/id112_25L_U.png', '../stimuli/version1_color/id065_00C_D.png']",116328.0,0.0,31.0,12.0,encoding,man,065,"[0, 2]",black,"['50R', '00C']","['C', 'D']",,"{'muct_id': '406', 'lighting': 'w', 'race_guess': 'b', 'gender_guess': 'm', 'quality': '3', 'quality_eyes': '3', 'quality_mouth': '3', 'quality_ears': '3', 'quality_hair': '3', 'quality_neck': '3', 'facial_hair': '1.0', 'notes': None, 'race_common': 'black', 'gender_common': 'man'}","{'muct_id': '206', 'lighting': 't', 'race_guess': 'b', 'gender_guess': 'm', 'quality': '3', 'quality_eyes': '3', 'quality_mouth': '3', 'quality_ears': '3', 'quality_hair': '3', 'quality_neck': '3', 'facial_hair': '1.0', 'notes': None, 'race_common': 'black', 'gender_common': 'man'}",,,,,,,,,,,,,,,,,,,,,,,,,,,,,,,,,,,,,,,,,,,,,,626c50cc088a461098c78b93,626c2d4cb109dd263cf9c983,6151f34082c574452b8af3b9,,,,,,,,,,,,,,,,,,,,,0.836895763874054,"[0.8710609674453735, 0.9386247992515564]",,,,
12905,626c514e1a371c538416af24,Chrome,,main_task,1.0,1.0,chris,"4/29/2022, 3:57:50 PM",e2z0wjp17kbqvncson68,0.0-126.0-0.0,pilot_prolific_afc2_color,,,,,,,,6222.9000000003725,,550401.0,0.0,134.0,1.0,retrieval_practice,,,,,,,,,,,,,,,,,,,,,,,,,,,,,,,,19,,,,50R,50,,,,,,,,,,,,,,,,,,626c4f07ebd0736a3ad0eed5,626c2d4cb109dd263cf9c984,60fd772e3e1dd6055c9c11bc,"{'muct_id': '86', 'lighting': 'q', 'race_guess': 'b', 'gender_guess': 'w', 'quality': '3', 'quality_eyes': '3', 'quality_mouth': '3', 'quality_ears': '3', 'quality_hair': '3', 'quality_neck': '3', 'facial_hair': '0.0', 'notes': 'earrings', 'race_common': 'black', 'gender_common': 'woman'}","{'muct_id': '76', 'lighting': 'q', 'race_guess': 'w', 'gender_guess': 'w', 'quality': '2', 'quality_eyes': '2', 'quality_mouth': '3', 'quality_ears': '2', 'quality_hair': '2', 'quality_neck': '3', 'facial_hair': '0.0', 'notes': 'hair', 'race_common': 'white', 'gender_common': 'woman'}",woman,059,1.0,black,25R,C,042,oddity,woman,123,0.0,19.0,25L,D,white,25R,D,"['../stimuli/version1_color/id123_25R_D.png', '../stimuli/version1_color/id059_25R_C.png']",,,0.8815245628356934,0.9178751707077026,,
12906,626c514e1a371c538416af25,Chrome,1.0,main_task,1.0,1.0,chris,"4/29/2022, 3:57:50 PM",1ylw3wle94ly6jvjy78m,0.0-18.0,pilot_prolific_afc2_color,37,man,107,0.0,black,25L,C,2461,"['../stimuli/version1_color/id107_25L_C.png', '../stimuli/version1_color/id065_00C_D.png', '../stimuli/version1_color/id065_50R_U.png']",82268.0,0.0,23.0,8.0,encoding,man,065,"[1, 2]",black,"['00C', '50R']","['D', 'U']",,"{'muct_id': '297', 'lighting': 't', 'race_guess': 'b', 'gender_guess': 'm', 'quality': '3', 'quality_eyes': '3', 'quality_mouth': '3', 'quality_ears': '3', 'quality_hair': '3', 'quality_neck': '3', 'facial_hair': '4.0', 'notes': 'beard', 'race_common': 'black', 'gender_common': 'man'}","{'muct_id': '206', 'lighting': 't', 'race_guess': 'b', 'gender_guess': 'm', 'quality': '3', 'quality_eyes': '3', 'quality_mouth': '3', 'quality_ears': '3', 'quality_hair': '3', 'quality_neck': '3', 'facial_hair': '1.0', 'notes': None, 'race_common': 'black', 'gender_common': 'man'}",,,,,,,,,,,,,,,,,,,,,,,,,,,,,,,,,,,,,,,,,,,,,,626c50ee9c0d22e1f3954789,626c2d4cb109dd263cf9c984,610c874b2f6d232ff21a5666,,,,,,,,,,,,,,,,,,,,,0.8719100952148438,"[0.9386247992515564, 0.9138250946998596]",,,,
12907,626c51501a371c538416af26,Chrome,3.0,main_task,1.0,3.0,chris,"4/29/2022, 4:57:53 PM",nwmxxufzojw6uc89wz6g,0.0-28.0,pilot_prolific_afc2_color,40,man,115,2.0,white,00C,C,2194,"['../stimuli/version1_color/id041_25R_U.png', '../stimuli/version1_color/id041_50L_D.png', '../stimuli/version1_color/id115_00C_C.png']",120937.0,0.0,33.0,13.0,encoding,man,041,"[0, 1]",white,"['25R', '50L']","['U', 'D']",,"{'muct_id': '412', 'lighting': 'x', 'race_guess': 'w', 'gender_guess': 'm', 'quality': '3', 'quality_eyes': '3', 'quality_mouth': '3', 'quality_ears': '3', 'quality_hair': '3', 'quality_neck': '3', 'facial_hair': '0.0', 'notes': None, 'race_common': 'white', 'gender_common': 'man'}","{'muct_id': '56', 'lighting': 'q', 'race_guess': 'w', 'gender_guess': 'm', 'quality': '3', 'quality_eyes': '3', 'quality_mouth': '3', 'quality_ears': '3', 'quality_hair': '3', 'quality_neck': '3', 'facial_hair': '0.0', 'notes': None, 'race_common': 'white', 'gender_common': 'man'}",,,,,,,,,,,,,,,,,,,,,,,,,,,,,,,,,,,,,,,,,,,,,,626c50cc088a461098c78b93,626c2d4cb109dd263cf9c983,6151f34082c574452b8af3b9,,,,,,,,,,,,,,,,,,,,,0.9260919690132141,"[0.9264489412307739, 0.9088127613067627]",,,,
12908,626c51511a371c538416af27,Chrome,2.0,main_task,1.0,2.0,chris,"4/29/2022, 3:57:53 PM",1ylw3wle94ly6jvjy78m,0.0-20.0,pilot_prolific_afc2_color,39,woman,114,1.0,white,25L,C,1798,"['../stimuli/version1_color/id051_25R_U.png', '../stimuli/version1_color/id114_25L_C.png', '../stimuli/version1_color/id051_00C_D.png']",84774.0,0.0,25.0,9.0,encoding,woman,051,"[0, 2]",white,"['25R', '00C']","['U', 'D']",,"{'muct_id': '410', 'lighting': 'w', 'race_guess': 'w', 'gender_guess': 'w', 'quality': '3', 'quality_eyes': '3', 'quality_mouth': '3', 'quality_ears': '3', 'quality_hair': '3', 'quality_neck': '3', 'facial_hair': '0.0', 'notes': 'makeup mouth', 'race_common': 'white', 'gender_common': 'woman'}","{'muct_id': '74', 'lighting': 'q', 'race_guess': 'w', 'gender_guess': 'w', 'quality': '3', 'quality_eyes': '3', 'quality_mouth': '3', 'quality_ears': '3', 'quality_hair': '3', 'quality_neck': '3', 'facial_hair': '0.0', 'notes': None, 'race_common': 'white', 'gender_common': 'woman'}",,,,,,,,,,,,,,,,,,,,,,,,,,,,,,,,,,,,,,,,,,,,,,626c50ee9c0d22e1f3954789,626c2d4cb109dd263cf9c984,610c874b2f6d232ff21a5666,,,,,,,,,,,,,,,,,,,,,0.8935008645057678,"[0.9388952851295471, 0.9339501857757568]",,,,
12909,626c51531a371c538416af28,Chrome,1.0,main_task,1.0,1.0,chris,"4/29/2022, 3:57:55 PM",1ylw3wle94ly6jvjy78m,0.0-22.0,pilot_prolific_afc2_color,37,man,113,0.0,black,00C,D,922,"['../stimuli/version1_color/id113_00C_D.png', '../stimuli/version1_color/id090_50L_U.png', '../stimuli/version1_color/id090_25R_C.png']",86698.0,0.0,27.0,10.0,encoding,man,090,"[1, 2]",black,"['50L', '25R']","['U', 'C']",,"{'muct_id': '407', 'lighting': 'x', 'race_guess': 'u', 'gender_guess': 'm', 'quality': '3', 'quality_eyes': '3', 'quality_mouth': '3', 'quality_ears': '3', 'quality_hair': '3', 'quality_neck': '3', 'facial_hair': '3.0', 'notes': 'beard', 'race_common': 'black', 'gender_common': 'man'}","{'muct_id': '259', 'lighting': 'v', 'race_guess': 'b', 'gender_guess': 'm', 'quality': '3', 'quality_eyes': '3', 'quality_mouth': '3', 'quality_ears': '3', 'quality_hair': '3', 'quality_neck': '3', 'facial_hair': '2.0', 'notes': None, 'race_common': 'black', 'gender_common': 'man'}",,,,,,,,,,,,,,,,,,,,,,,,,,,,,,,,,,,,,,,,,,,,,,626c50ee9c0d22e1f3954789,626c2d4cb109dd263cf9c984,610c874b2f6d232ff21a5666,,,,,,,,,,,,,,,,,,,,,0.9016724824905396,"[0.8628132939338684, 0.8862859606742859]",,,,
12910,626c51531a371c538416af29,Chrome,,main_task,1.0,2.0,chris,"4/29/2022, 3:57:55 PM",e2z0wjp17kbqvncson68,0.0-127.0-0.0,pilot_prolific_afc2_color,,,,,,,,4779.699999999255,,556176.0,0.0,136.0,2.0,retrieval_practice,,,,,,,,,,,,,,,,,,,,,,,,,,,,,,,,78,,,,50L,-50,,,,,,,,,,,,,,,,,,626c4f07ebd0736a3ad0eed5,626c2d4cb109dd263cf9c984,60fd772e3e1dd6055c9c11bc,"{'muct_id': '229', 'lighting': 't', 'race_guess': 'w', 'gender_guess': 'm', 'quality': '3', 'quality_eyes': '3', 'quality_mouth': '3', 'quality_ears': '3', 'quality_hair': '3', 'quality_neck': '3', 'facial_hair': '2.0', 'notes': 'mouth', 'race_common': 'white', 'gender_common': 'man'}","{'muct_id': '450', 'lighting': 'w', 'race_guess': 'b', 'gender_guess': 'm', 'quality': '3', 'quality_eyes': '3', 'quality_mouth': '3', 'quality_ears': '3', 'quality_hair': '3', 'quality_neck': '3', 'facial_hair': '4.0', 'notes': 'mouth', 'race_common': 'black', 'gender_common': 'man'}",man,074,0.0,white,50R,C,057,oddity,man,132,1.0,32.0,00C,D,black,50L,D,"['../stimuli/version1_color/id074_50R_C.png', '../stimuli/version1_color/id132_50L_D.png']",,,0.887066125869751,0.8667294383049011,,
12911,626c51541a371c538416af2a,Chrome,2.0,main_task,1.0,2.0,chris,"4/29/2022, 4:57:57 PM",nwmxxufzojw6uc89wz6g,0.0-30.0,pilot_prolific_afc2_color,39,man,116,1.0,white,50R,D,3039,"['../stimuli/version1_color/id053_00C_U.png', '../stimuli/version1_color/id116_50R_D.png', '../stimuli/version1_color/id053_50L_C.png']",124970.0,0.0,35.0,14.0,encoding,man,053,"[0, 2]",white,"['00C', '50L']","['U', 'C']",,"{'muct_id': '414', 'lighting': 'w', 'race_guess': 'w', 'gender_guess': 'm', 'quality': '3', 'quality_eyes': '3', 'quality_mouth': '3', 'quality_ears': '3', 'quality_hair': '3', 'quality_neck': '3', 'facial_hair': '0.0', 'notes': None, 'race_common': 'white', 'gender_common': 'man'}","{'muct_id': '79', 'lighting': 'r', 'race_guess': 'i', 'gender_guess': 'm', 'quality': '2', 'quality_eyes': '2', 'quality_mouth': '3', 'quality_ears': '3', 'quality_hair': '2', 'quality_neck': '3', 'facial_hair': '0.0', 'notes': None, 'race_common': 'white', 'gender_common': 'man'}",,,,,,,,,,,,,,,,,,,,,,,,,,,,,,,,,,,,,,,,,,,,,,626c50cc088a461098c78b93,626c2d4cb109dd263cf9c983,6151f34082c574452b8af3b9,,,,,,,,,,,,,,,,,,,,,0.8805891275405884,"[0.9271689057350159, 0.8898024559020996]",,,,
12912,626c51551a371c538416af2b,Chrome,3.0,main_task,0.0,1.0,chris,"4/29/2022, 3:57:57 PM",1ylw3wle94ly6jvjy78m,0.0-24.0,pilot_prolific_afc2_color,40,man,112,0.0,black,25L,C,1482,"['../stimuli/version1_color/id112_25L_C.png', '../stimuli/version1_color/id058_00C_D.png', '../stimuli/version1_color/id058_25R_U.png']",88897.0,0.0,29.0,11.0,encoding,man,058,"[1, 2]",black,"['00C', '25R']","['D', 'U']",,"{'muct_id': '406', 'lighting': 'w', 'race_guess': 'b', 'gender_guess': 'm', 'quality': '3', 'quality_eyes': '3', 'quality_mouth': '3', 'quality_ears': '3', 'quality_hair': '3', 'quality_neck': '3', 'facial_hair': '1.0', 'notes': None, 'race_common': 'black', 'gender_common': 'man'}","{'muct_id': '84', 'lighting': 'q', 'race_guess': 'b', 'gender_guess': 'm', 'quality': '2', 'quality_eyes': '2', 'quality_mouth': '3', 'quality_ears': '3', 'quality_hair': '3', 'quality_neck': '3', 'facial_hair': '3.0', 'notes': 'beard', 'race_common': 'black', 'gender_common': 'man'}",,,,,,,,,,,,,,,,,,,,,,,,,,,,,,,,,,,,,,,,,,,,,,626c50ee9c0d22e1f3954789,626c2d4cb109dd263cf9c984,610c874b2f6d232ff21a5666,,,,,,,,,,,,,,,,,,,,,0.8702343106269836,"[0.9111291766166687, 0.8320121765136719]",,,,
12913,626c51581a371c538416af2c,Chrome,1.0,main_task,1.0,1.0,chris,"4/29/2022, 3:58:00 PM",1ylw3wle94ly6jvjy78m,0.0-26.0,pilot_prolific_afc2_color,37,woman,109,0.0,white,00C,D,2062,"['../stimuli/version1_color/id109_00C_D.png', '../stimuli/version1_color/id013_25R_C.png', '../stimuli/version1_color/id013_50L_U.png']",91609.0,0.0,31.0,12.0,encoding,woman,013,"[1, 2]",white,"['25R', '50L']","['C', 'U']",,"{'muct_id': '401', 'lighting': 'w', 'race_guess': 'w', 'gender_guess': 'w', 'quality': '3', 'quality_eyes': '3', 'quality_mouth': '3', 'quality_ears': '3', 'quality_hair': '3', 'quality_neck': '3', 'facial_hair': '0.0', 'notes': 'mouth', 'race_common': 'white', 'gender_common': 'woman'}","{'muct_id': '14', 'lighting': 'q', 'race_guess': 'w', 'gender_guess': 'w', 'quality': '3', 'quality_eyes': '3', 'quality_mouth': '3', 'quality_ears': '3', 'quality_hair': '3', 'quality_neck': '3', 'facial_hair': '0.0', 'notes': None, 'race_common': 'white', 'gender_common': 'woman'}",,,,,,,,,,,,,,,,,,,,,,,,,,,,,,,,,,,,,,,,,,,,,,626c50ee9c0d22e1f3954789,626c2d4cb109dd263cf9c984,610c874b2f6d232ff21a5666,,,,,,,,,,,,,,,,,,,,,0.9190370440483093,"[0.8550390601158142, 0.8739315867424011]",,,,
