,_id,browser,choice,collection,correct,correct_response,database,datetime,experiment_id,internal_node_id,iteration,key_press,oddity_gender,oddity_identity,oddity_index,oddity_race,oddity_tiltLR,oddity_tiltUD,rt,stimulus,time_elapsed,timed_out,trial_index,trial_number,trial_type,typicals_gender,typicals_identity,typicals_indices,typicals_race,typicals_tiltsLR,typicals_tiltsUD,practice_threshold_met,oddity_meta,typicals_meta,button_pressed,last_trial_type,prediction,choice_category,choice_object,oddity_category,oddity_name,oddity_type,stimulus_response_map,typical_category,typical_indices,typical_name,variation_level,encoding_pair,encoding_type,gender,identity,meta,original_index,original_tiltLR,original_tiltUD,race,response,retrieval_condition,tiltLR,tiltUD,tilt_change,tilt_difference,original_tilt,encoding_accuracy,encoding_avg_rt,encoding_n_trials,experimental_duration,filler_accuracy,filler_avg_rt,filler_n_trials,params,retrieval_accuracy,retrieval_avg_rt,retrieval_n_trials,total_bonus,total_payment,age,gender_other,latinx,session_id,study_id,subject_id
6547,6263852006b19921fe99ca2f,Chrome,1.0,main_task,1.0,1.0,chris,"4/22/2022, 9:48:36 PM",pgj4xsph70gx0zg8mvfp,0.0-2.0-0.0,pilot_prolific_kitchen_sink,37,woman,106,0.0,latinx,50R,U,3183.0,"['../stimuli/version1_gray_lm/id106_50R_U.png', '../stimuli/version1_gray_lm/id107_00C_C.png', '../stimuli/version1_gray_lm/id107_50L_D.png']",41279.0,0.0,2.0,1.0,encoding_practice,man,107,"[1, 2]",latinx,"['00C', '50L']","['C', 'D']",,,,,,,,,,,,,,,,,,,,,,,,,,,,,,,,,,,,,,,,,,,,,,,,,626384f0f847f13af3ed5e69,62635315c2c7645fef78b5e5,5c638b779e01830001f7127e
6548,6263852606b19921fe99ca30,Chrome,1.0,main_task,1.0,1.0,chris,"4/22/2022, 9:48:42 PM",pgj4xsph70gx0zg8mvfp,0.0-2.1-0.1,pilot_prolific_kitchen_sink,37,woman,106,0.0,latinx,00C,C,3165.0,"['../stimuli/version1_gray_lm/id106_00C_C.png', '../stimuli/version1_gray_lm/id108_25L_U.png', '../stimuli/version1_gray_lm/id108_50R_D.png']",46938.0,0.0,4.0,2.0,encoding_practice,woman,108,"[1, 2]",latinx,"['25L', '50R']","['U', 'D']",,,,,,,,,,,,,,,,,,,,,,,,,,,,,,,,,,,,,,,,,,,,,,,,,626384f0f847f13af3ed5e69,62635315c2c7645fef78b5e5,5c638b779e01830001f7127e
6549,6263852706b19921fe99ca31,Chrome,2.0,main_task,1.0,2.0,chris,"4/22/2022, 9:48:44 PM",pgj4xsph70gx0zg8mvfp,0.0-2.2-0.2,pilot_prolific_kitchen_sink,39,man,107,1.0,latinx,00C,U,1025.0,"['../stimuli/version1_gray_lm/id106_50R_D.png', '../stimuli/version1_gray_lm/id107_00C_U.png', '../stimuli/version1_gray_lm/id106_25L_C.png']",48840.0,0.0,6.0,3.0,encoding_practice,woman,106,"[0, 2]",latinx,"['50R', '25L']","['D', 'C']",1.0,,,,,,,,,,,,,,,,,,,,,,,,,,,,,,,,,,,,,,,,,,,,,,,,626384f0f847f13af3ed5e69,62635315c2c7645fef78b5e5,5c638b779e01830001f7127e
6550,6263853106b19921fe99ca32,Chrome,1.0,main_task,1.0,1.0,chris,"4/22/2022, 9:48:53 PM",pgj4xsph70gx0zg8mvfp,0.0-4.0,pilot_prolific_kitchen_sink,37,man,100,0.0,white,50L,U,2834.0,"['../stimuli/version1_gray_lm/id100_50L_U.png', '../stimuli/version1_gray_lm/id099_00C_D.png', '../stimuli/version1_gray_lm/id099_50R_C.png']",57925.0,0.0,9.0,1.0,encoding,man,099,"[1, 2]",white,"['00C', '50R']","['D', 'C']",,"{'muct_id': '280', 'lighting': 'u', 'race_guess': 'w', 'gender_guess': 'm', 'quality': '3', 'quality_eyes': '3', 'quality_mouth': '3', 'quality_ears': '3', 'quality_hair': '3', 'quality_neck': '3', 'facial_hair': '0.0', 'notes': None, 'race_common': 'white', 'gender_common': 'man'}","{'muct_id': '278', 'lighting': 't', 'race_guess': 'w', 'gender_guess': 'm', 'quality': '3', 'quality_eyes': '3', 'quality_mouth': '3', 'quality_ears': '3', 'quality_hair': '3', 'quality_neck': '3', 'facial_hair': '0.0', 'notes': None, 'race_common': 'white', 'gender_common': 'man'}",,,,,,,,,,,,,,,,,,,,,,,,,,,,,,,,,,,,,,,,,,,,,,626384f0f847f13af3ed5e69,62635315c2c7645fef78b5e5,5c638b779e01830001f7127e
6551,6263853406b19921fe99ca33,Chrome,3.0,main_task,1.0,3.0,chris,"4/22/2022, 9:48:56 PM",pgj4xsph70gx0zg8mvfp,0.0-6.0,pilot_prolific_kitchen_sink,40,woman,101,2.0,white,50R,U,2104.0,"['../stimuli/version1_gray_lm/id076_50L_D.png', '../stimuli/version1_gray_lm/id076_00C_C.png', '../stimuli/version1_gray_lm/id101_50R_U.png']",61200.0,0.0,11.0,2.0,encoding,woman,076,"[0, 1]",white,"['50L', '00C']","['D', 'C']",,"{'muct_id': '281', 'lighting': 't', 'race_guess': 'w', 'gender_guess': 'w', 'quality': '3', 'quality_eyes': '3', 'quality_mouth': '3', 'quality_ears': '3', 'quality_hair': '3', 'quality_neck': '3', 'facial_hair': '0.0', 'notes': None, 'race_common': 'white', 'gender_common': 'woman'}","{'muct_id': '233', 'lighting': 'u', 'race_guess': 'w', 'gender_guess': 'w', 'quality': '3', 'quality_eyes': '3', 'quality_mouth': '3', 'quality_ears': '3', 'quality_hair': '3', 'quality_neck': '3', 'facial_hair': '0.0', 'notes': 'earrings', 'race_common': 'white', 'gender_common': 'woman'}",,,,,,,,,,,,,,,,,,,,,,,,,,,,,,,,,,,,,,,,,,,,,,626384f0f847f13af3ed5e69,62635315c2c7645fef78b5e5,5c638b779e01830001f7127e
6552,6263853606b19921fe99ca34,Chrome,2.0,main_task,1.0,2.0,chris,"4/22/2022, 9:48:59 PM",pgj4xsph70gx0zg8mvfp,0.0-8.0,pilot_prolific_kitchen_sink,39,woman,103,1.0,black,00C,D,1800.0,"['../stimuli/version1_gray_lm/id035_25R_C.png', '../stimuli/version1_gray_lm/id103_00C_D.png', '../stimuli/version1_gray_lm/id035_25L_U.png']",63744.0,0.0,13.0,3.0,encoding,woman,035,"[0, 2]",black,"['25R', '25L']","['C', 'U']",,"{'muct_id': '285', 'lighting': 'v', 'race_guess': 'b', 'gender_guess': 'w', 'quality': '3', 'quality_eyes': '3', 'quality_mouth': '3', 'quality_ears': '3', 'quality_hair': '3', 'quality_neck': '3', 'facial_hair': '0.0', 'notes': 'earrings', 'race_common': 'black', 'gender_common': 'woman'}","{'muct_id': '46', 'lighting': 'q', 'race_guess': 'b', 'gender_guess': 'w', 'quality': '3', 'quality_eyes': '3', 'quality_mouth': '3', 'quality_ears': '3', 'quality_hair': '3', 'quality_neck': '3', 'facial_hair': '0.0', 'notes': 'earrings', 'race_common': 'black', 'gender_common': 'woman'}",,,,,,,,,,,,,,,,,,,,,,,,,,,,,,,,,,,,,,,,,,,,,,626384f0f847f13af3ed5e69,62635315c2c7645fef78b5e5,5c638b779e01830001f7127e
6553,6263853906b19921fe99ca35,Chrome,1.0,main_task,1.0,1.0,chris,"4/22/2022, 9:49:02 PM",pgj4xsph70gx0zg8mvfp,0.0-10.0,pilot_prolific_kitchen_sink,37,man,105,0.0,black,50R,D,1800.0,"['../stimuli/version1_gray_lm/id105_50R_D.png', '../stimuli/version1_gray_lm/id058_00C_U.png', '../stimuli/version1_gray_lm/id058_25L_C.png']",66347.0,0.0,15.0,4.0,encoding,man,058,"[1, 2]",black,"['00C', '25L']","['U', 'C']",,"{'muct_id': '290', 'lighting': 't', 'race_guess': 'b', 'gender_guess': 'm', 'quality': '3', 'quality_eyes': '3', 'quality_mouth': '3', 'quality_ears': '3', 'quality_hair': '3', 'quality_neck': '3', 'facial_hair': '2.0', 'notes': None, 'race_common': 'black', 'gender_common': 'man'}","{'muct_id': '84', 'lighting': 'q', 'race_guess': 'b', 'gender_guess': 'm', 'quality': '2', 'quality_eyes': '2', 'quality_mouth': '3', 'quality_ears': '3', 'quality_hair': '3', 'quality_neck': '3', 'facial_hair': '3.0', 'notes': 'beard', 'race_common': 'black', 'gender_common': 'man'}",,,,,,,,,,,,,,,,,,,,,,,,,,,,,,,,,,,,,,,,,,,,,,626384f0f847f13af3ed5e69,62635315c2c7645fef78b5e5,5c638b779e01830001f7127e
6554,6263853c06b19921fe99ca36,Chrome,2.0,main_task,1.0,2.0,chris,"4/22/2022, 9:49:05 PM",pgj4xsph70gx0zg8mvfp,0.0-12.0,pilot_prolific_kitchen_sink,39,man,104,1.0,white,50R,C,2319.0,"['../stimuli/version1_gray_lm/id012_00C_U.png', '../stimuli/version1_gray_lm/id104_50R_C.png', '../stimuli/version1_gray_lm/id012_25L_D.png']",69346.0,0.0,17.0,5.0,encoding,man,012,"[0, 2]",white,"['00C', '25L']","['U', 'D']",,"{'muct_id': '287', 'lighting': 't', 'race_guess': 'w', 'gender_guess': 'm', 'quality': '3', 'quality_eyes': '3', 'quality_mouth': '3', 'quality_ears': '3', 'quality_hair': '3', 'quality_neck': '3', 'facial_hair': '2.0', 'notes': None, 'race_common': 'white', 'gender_common': 'man'}","{'muct_id': '12', 'lighting': 'q', 'race_guess': 'i', 'gender_guess': 'm', 'quality': '3', 'quality_eyes': '3', 'quality_mouth': '3', 'quality_ears': '3', 'quality_hair': '3', 'quality_neck': '3', 'facial_hair': '2.0', 'notes': None, 'race_common': 'white', 'gender_common': 'man'}",,,,,,,,,,,,,,,,,,,,,,,,,,,,,,,,,,,,,,,,,,,,,,626384f0f847f13af3ed5e69,62635315c2c7645fef78b5e5,5c638b779e01830001f7127e
6555,6263853e06b19921fe99ca37,Chrome,2.0,main_task,1.0,2.0,chris,"4/22/2022, 9:49:07 PM",pgj4xsph70gx0zg8mvfp,0.0-14.0,pilot_prolific_kitchen_sink,39,man,112,1.0,black,50R,C,2010.0,"['../stimuli/version1_gray_lm/id086_25L_D.png', '../stimuli/version1_gray_lm/id112_50R_C.png', '../stimuli/version1_gray_lm/id086_00C_U.png']",71907.0,0.0,19.0,6.0,encoding,man,086,"[0, 2]",black,"['25L', '00C']","['D', 'U']",,"{'muct_id': '406', 'lighting': 'w', 'race_guess': 'b', 'gender_guess': 'm', 'quality': '3', 'quality_eyes': '3', 'quality_mouth': '3', 'quality_ears': '3', 'quality_hair': '3', 'quality_neck': '3', 'facial_hair': '1.0', 'notes': None, 'race_common': 'black', 'gender_common': 'man'}","{'muct_id': '250', 'lighting': 't', 'race_guess': 'b', 'gender_guess': 'm', 'quality': '3', 'quality_eyes': '3', 'quality_mouth': '3', 'quality_ears': '3', 'quality_hair': '3', 'quality_neck': '3', 'facial_hair': '1.0', 'notes': None, 'race_common': 'black', 'gender_common': 'man'}",,,,,,,,,,,,,,,,,,,,,,,,,,,,,,,,,,,,,,,,,,,,,,626384f0f847f13af3ed5e69,62635315c2c7645fef78b5e5,5c638b779e01830001f7127e
6556,6263854206b19921fe99ca38,Chrome,2.0,main_task,0.0,3.0,chris,"4/22/2022, 9:49:11 PM",pgj4xsph70gx0zg8mvfp,0.0-16.0,pilot_prolific_kitchen_sink,39,woman,111,2.0,black,50L,D,2958.0,"['../stimuli/version1_gray_lm/id144_00C_C.png', '../stimuli/version1_gray_lm/id144_50R_U.png', '../stimuli/version1_gray_lm/id111_50L_D.png']",75592.0,0.0,21.0,7.0,encoding,woman,144,"[0, 1]",black,"['00C', '50R']","['C', 'U']",,"{'muct_id': '405', 'lighting': 'w', 'race_guess': 'b', 'gender_guess': 'w', 'quality': '3', 'quality_eyes': '3', 'quality_mouth': '3', 'quality_ears': '3', 'quality_hair': '3', 'quality_neck': '3', 'facial_hair': '0.0', 'notes': 'hair earrings', 'race_common': 'black', 'gender_common': 'woman'}","{'muct_id': '214', 'lighting': 'u', 'race_guess': 'b', 'gender_guess': 'w', 'quality': '2', 'quality_eyes': '2', 'quality_mouth': '3', 'quality_ears': '3', 'quality_hair': '3', 'quality_neck': '3', 'facial_hair': '0.0', 'notes': None, 'race_common': 'black', 'gender_common': 'woman'}",,,,,,,,,,,,,,,,,,,,,,,,,,,,,,,,,,,,,,,,,,,,,,626384f0f847f13af3ed5e69,62635315c2c7645fef78b5e5,5c638b779e01830001f7127e
6557,6263854506b19921fe99ca39,Chrome,2.0,main_task,1.0,2.0,chris,"4/22/2022, 9:49:14 PM",pgj4xsph70gx0zg8mvfp,0.0-18.0,pilot_prolific_kitchen_sink,39,woman,102,1.0,white,25R,D,2575.0,"['../stimuli/version1_gray_lm/id013_25L_C.png', '../stimuli/version1_gray_lm/id102_25R_D.png', '../stimuli/version1_gray_lm/id013_00C_U.png']",78782.0,0.0,23.0,8.0,encoding,woman,013,"[0, 2]",white,"['25L', '00C']","['C', 'U']",,"{'muct_id': '283', 'lighting': 't', 'race_guess': 'i', 'gender_guess': 'w', 'quality': '3', 'quality_eyes': '3', 'quality_mouth': '3', 'quality_ears': '3', 'quality_hair': '3', 'quality_neck': '3', 'facial_hair': '0.0', 'notes': 'pottu', 'race_common': 'white', 'gender_common': 'woman'}","{'muct_id': '14', 'lighting': 'q', 'race_guess': 'w', 'gender_guess': 'w', 'quality': '3', 'quality_eyes': '3', 'quality_mouth': '3', 'quality_ears': '3', 'quality_hair': '3', 'quality_neck': '3', 'facial_hair': '0.0', 'notes': None, 'race_common': 'white', 'gender_common': 'woman'}",,,,,,,,,,,,,,,,,,,,,,,,,,,,,,,,,,,,,,,,,,,,,,626384f0f847f13af3ed5e69,62635315c2c7645fef78b5e5,5c638b779e01830001f7127e
6558,6263854a06b19921fe99ca3a,Chrome,1.0,main_task,1.0,1.0,chris,"4/22/2022, 9:49:19 PM",pgj4xsph70gx0zg8mvfp,0.0-20.0,pilot_prolific_kitchen_sink,37,man,113,0.0,black,50R,D,3988.0,"['../stimuli/version1_gray_lm/id113_50R_D.png', '../stimuli/version1_gray_lm/id090_00C_U.png', '../stimuli/version1_gray_lm/id090_25L_C.png']",83482.0,0.0,25.0,9.0,encoding,man,090,"[1, 2]",black,"['00C', '25L']","['U', 'C']",,"{'muct_id': '407', 'lighting': 'x', 'race_guess': 'u', 'gender_guess': 'm', 'quality': '3', 'quality_eyes': '3', 'quality_mouth': '3', 'quality_ears': '3', 'quality_hair': '3', 'quality_neck': '3', 'facial_hair': '3.0', 'notes': 'beard', 'race_common': 'black', 'gender_common': 'man'}","{'muct_id': '259', 'lighting': 'v', 'race_guess': 'b', 'gender_guess': 'm', 'quality': '3', 'quality_eyes': '3', 'quality_mouth': '3', 'quality_ears': '3', 'quality_hair': '3', 'quality_neck': '3', 'facial_hair': '2.0', 'notes': None, 'race_common': 'black', 'gender_common': 'man'}",,,,,,,,,,,,,,,,,,,,,,,,,,,,,,,,,,,,,,,,,,,,,,626384f0f847f13af3ed5e69,62635315c2c7645fef78b5e5,5c638b779e01830001f7127e
6559,6263854f06b19921fe99ca3b,Chrome,3.0,main_task,1.0,3.0,chris,"4/22/2022, 9:49:23 PM",pgj4xsph70gx0zg8mvfp,0.0-22.0,pilot_prolific_kitchen_sink,40,woman,114,2.0,white,25R,C,4227.0,"['../stimuli/version1_gray_lm/id088_00C_D.png', '../stimuli/version1_gray_lm/id088_25L_U.png', '../stimuli/version1_gray_lm/id114_25R_C.png']",88292.0,0.0,27.0,10.0,encoding,woman,088,"[0, 1]",white,"['00C', '25L']","['D', 'U']",,"{'muct_id': '410', 'lighting': 'w', 'race_guess': 'w', 'gender_guess': 'w', 'quality': '3', 'quality_eyes': '3', 'quality_mouth': '3', 'quality_ears': '3', 'quality_hair': '3', 'quality_neck': '3', 'facial_hair': '0.0', 'notes': 'makeup mouth', 'race_common': 'white', 'gender_common': 'woman'}","{'muct_id': '252', 'lighting': 't', 'race_guess': 'w', 'gender_guess': 'w', 'quality': '3', 'quality_eyes': '3', 'quality_mouth': '3', 'quality_ears': '3', 'quality_hair': '3', 'quality_neck': '3', 'facial_hair': '0.0', 'notes': 'hair', 'race_common': 'white', 'gender_common': 'woman'}",,,,,,,,,,,,,,,,,,,,,,,,,,,,,,,,,,,,,,,,,,,,,,626384f0f847f13af3ed5e69,62635315c2c7645fef78b5e5,5c638b779e01830001f7127e
6560,6263855306b19921fe99ca3c,Chrome,2.0,main_task,0.0,1.0,chris,"4/22/2022, 9:49:28 PM",pgj4xsph70gx0zg8mvfp,0.0-24.0,pilot_prolific_kitchen_sink,39,man,117,0.0,black,00C,C,3961.0,"['../stimuli/version1_gray_lm/id117_00C_C.png', '../stimuli/version1_gray_lm/id064_50R_U.png', '../stimuli/version1_gray_lm/id064_25L_D.png']",92878.0,0.0,29.0,11.0,encoding,man,064,"[1, 2]",black,"['50R', '25L']","['U', 'D']",,"{'muct_id': '417', 'lighting': 'w', 'race_guess': 'b', 'gender_guess': 'm', 'quality': '3', 'quality_eyes': '3', 'quality_mouth': '3', 'quality_ears': '3', 'quality_hair': '3', 'quality_neck': '3', 'facial_hair': '1.0', 'notes': 'mouth', 'race_common': 'black', 'gender_common': 'man'}","{'muct_id': '204', 'lighting': 't', 'race_guess': 'b', 'gender_guess': 'm', 'quality': '3', 'quality_eyes': '3', 'quality_mouth': '3', 'quality_ears': '3', 'quality_hair': '3', 'quality_neck': '3', 'facial_hair': '1.0', 'notes': None, 'race_common': 'black', 'gender_common': 'man'}",,,,,,,,,,,,,,,,,,,,,,,,,,,,,,,,,,,,,,,,,,,,,,626384f0f847f13af3ed5e69,62635315c2c7645fef78b5e5,5c638b779e01830001f7127e
6561,6263855606b19921fe99ca3d,Chrome,1.0,main_task,1.0,1.0,chris,"4/22/2022, 9:49:30 PM",pgj4xsph70gx0zg8mvfp,0.0-26.0,pilot_prolific_kitchen_sink,37,woman,109,0.0,white,25R,C,1851.0,"['../stimuli/version1_gray_lm/id109_25R_C.png', '../stimuli/version1_gray_lm/id017_50L_U.png', '../stimuli/version1_gray_lm/id017_00C_D.png']",95262.0,0.0,31.0,12.0,encoding,woman,017,"[1, 2]",white,"['50L', '00C']","['U', 'D']",,"{'muct_id': '401', 'lighting': 'w', 'race_guess': 'w', 'gender_guess': 'w', 'quality': '3', 'quality_eyes': '3', 'quality_mouth': '3', 'quality_ears': '3', 'quality_hair': '3', 'quality_neck': '3', 'facial_hair': '0.0', 'notes': 'mouth', 'race_common': 'white', 'gender_common': 'woman'}","{'muct_id': '19', 'lighting': 'r', 'race_guess': 'w', 'gender_guess': 'w', 'quality': '3', 'quality_eyes': '3', 'quality_mouth': '3', 'quality_ears': '3', 'quality_hair': '3', 'quality_neck': '3', 'facial_hair': '0.0', 'notes': None, 'race_common': 'white', 'gender_common': 'woman'}",,,,,,,,,,,,,,,,,,,,,,,,,,,,,,,,,,,,,,,,,,,,,,626384f0f847f13af3ed5e69,62635315c2c7645fef78b5e5,5c638b779e01830001f7127e
6562,6263855b06b19921fe99ca3e,Chrome,2.0,main_task,1.0,2.0,chris,"4/22/2022, 9:49:35 PM",pgj4xsph70gx0zg8mvfp,0.0-28.0,pilot_prolific_kitchen_sink,39,man,118,1.0,black,00C,D,4424.0,"['../stimuli/version1_gray_lm/id091_50R_C.png', '../stimuli/version1_gray_lm/id118_00C_D.png', '../stimuli/version1_gray_lm/id091_50L_U.png']",100030.0,0.0,33.0,13.0,encoding,man,091,"[0, 2]",black,"['50R', '50L']","['C', 'U']",,"{'muct_id': '419', 'lighting': 'x', 'race_guess': 'b', 'gender_guess': 'm', 'quality': '3', 'quality_eyes': '3', 'quality_mouth': '3', 'quality_ears': '3', 'quality_hair': '3', 'quality_neck': '3', 'facial_hair': '1.0', 'notes': None, 'race_common': 'black', 'gender_common': 'man'}","{'muct_id': '260', 'lighting': 't', 'race_guess': 'b', 'gender_guess': 'm', 'quality': '3', 'quality_eyes': '3', 'quality_mouth': '3', 'quality_ears': '3', 'quality_hair': '3', 'quality_neck': '3', 'facial_hair': '4.0', 'notes': 'beard', 'race_common': 'black', 'gender_common': 'man'}",,,,,,,,,,,,,,,,,,,,,,,,,,,,,,,,,,,,,,,,,,,,,,626384f0f847f13af3ed5e69,62635315c2c7645fef78b5e5,5c638b779e01830001f7127e
6563,6263855f06b19921fe99ca3f,Chrome,2.0,main_task,0.0,3.0,chris,"4/22/2022, 9:49:40 PM",pgj4xsph70gx0zg8mvfp,0.0-30.0,pilot_prolific_kitchen_sink,39,man,119,2.0,black,00C,C,3897.0,"['../stimuli/version1_gray_lm/id036_25R_D.png', '../stimuli/version1_gray_lm/id036_25L_U.png', '../stimuli/version1_gray_lm/id119_00C_C.png']",104514.0,0.0,35.0,14.0,encoding,man,036,"[0, 1]",black,"['25R', '25L']","['D', 'U']",,"{'muct_id': '420', 'lighting': 'w', 'race_guess': 'b', 'gender_guess': 'm', 'quality': '3', 'quality_eyes': '3', 'quality_mouth': '3', 'quality_ears': '3', 'quality_hair': '3', 'quality_neck': '3', 'facial_hair': '0.0', 'notes': None, 'race_common': 'black', 'gender_common': 'man'}","{'muct_id': '47', 'lighting': 'q', 'race_guess': 'b', 'gender_guess': 'u', 'quality': '3', 'quality_eyes': '3', 'quality_mouth': '3', 'quality_ears': '3', 'quality_hair': '3', 'quality_neck': '3', 'facial_hair': '0.0', 'notes': None, 'race_common': 'black', 'gender_common': 'man'}",,,,,,,,,,,,,,,,,,,,,,,,,,,,,,,,,,,,,,,,,,,,,,626384f0f847f13af3ed5e69,62635315c2c7645fef78b5e5,5c638b779e01830001f7127e
6564,6263856306b19921fe99ca40,Chrome,1.0,main_task,1.0,1.0,chris,"4/22/2022, 9:49:43 PM",pgj4xsph70gx0zg8mvfp,0.0-32.0,pilot_prolific_kitchen_sink,37,man,115,0.0,white,50L,U,2919.0,"['../stimuli/version1_gray_lm/id115_50L_U.png', '../stimuli/version1_gray_lm/id049_00C_D.png', '../stimuli/version1_gray_lm/id049_25R_C.png']",108076.0,0.0,37.0,15.0,encoding,man,049,"[1, 2]",white,"['00C', '25R']","['D', 'C']",,"{'muct_id': '412', 'lighting': 'x', 'race_guess': 'w', 'gender_guess': 'm', 'quality': '3', 'quality_eyes': '3', 'quality_mouth': '3', 'quality_ears': '3', 'quality_hair': '3', 'quality_neck': '3', 'facial_hair': '0.0', 'notes': None, 'race_common': 'white', 'gender_common': 'man'}","{'muct_id': '66', 'lighting': 'r', 'race_guess': 'w', 'gender_guess': 'm', 'quality': '3', 'quality_eyes': '3', 'quality_mouth': '3', 'quality_ears': '3', 'quality_hair': '3', 'quality_neck': '3', 'facial_hair': '0.0', 'notes': None, 'race_common': 'white', 'gender_common': 'man'}",,,,,,,,,,,,,,,,,,,,,,,,,,,,,,,,,,,,,,,,,,,,,,626384f0f847f13af3ed5e69,62635315c2c7645fef78b5e5,5c638b779e01830001f7127e
6565,6263856b06b19921fe99ca41,Chrome,3.0,main_task,1.0,3.0,chris,"4/22/2022, 9:49:51 PM",pgj4xsph70gx0zg8mvfp,0.0-34.0,pilot_prolific_kitchen_sink,40,man,116,2.0,white,50R,U,7330.0,"['../stimuli/version1_gray_lm/id043_00C_C.png', '../stimuli/version1_gray_lm/id043_25L_D.png', '../stimuli/version1_gray_lm/id116_50R_U.png']",116064.0,0.0,39.0,16.0,encoding,man,043,"[0, 1]",white,"['00C', '25L']","['C', 'D']",,"{'muct_id': '414', 'lighting': 'w', 'race_guess': 'w', 'gender_guess': 'm', 'quality': '3', 'quality_eyes': '3', 'quality_mouth': '3', 'quality_ears': '3', 'quality_hair': '3', 'quality_neck': '3', 'facial_hair': '0.0', 'notes': None, 'race_common': 'white', 'gender_common': 'man'}","{'muct_id': '58', 'lighting': 'q', 'race_guess': 'w', 'gender_guess': 'm', 'quality': '3', 'quality_eyes': '3', 'quality_mouth': '3', 'quality_ears': '3', 'quality_hair': '3', 'quality_neck': '3', 'facial_hair': '0.0', 'notes': None, 'race_common': 'white', 'gender_common': 'man'}",,,,,,,,,,,,,,,,,,,,,,,,,,,,,,,,,,,,,,,,,,,,,,626384f0f847f13af3ed5e69,62635315c2c7645fef78b5e5,5c638b779e01830001f7127e
6566,6263856f06b19921fe99ca42,Chrome,2.0,main_task,1.0,2.0,chris,"4/22/2022, 9:49:55 PM",pgj4xsph70gx0zg8mvfp,0.0-36.0,pilot_prolific_kitchen_sink,39,man,121,1.0,black,00C,U,3457.0,"['../stimuli/version1_gray_lm/id040_25R_D.png', '../stimuli/version1_gray_lm/id121_00C_U.png', '../stimuli/version1_gray_lm/id040_50L_C.png']",120137.0,0.0,41.0,17.0,encoding,man,040,"[0, 2]",black,"['25R', '50L']","['D', 'C']",,"{'muct_id': '423', 'lighting': 'w', 'race_guess': 'b', 'gender_guess': 'm', 'quality': '3', 'quality_eyes': '3', 'quality_mouth': '3', 'quality_ears': '3', 'quality_hair': '3', 'quality_neck': '3', 'facial_hair': '1.0', 'notes': None, 'race_common': 'black', 'gender_common': 'man'}","{'muct_id': '55', 'lighting': 'r', 'race_guess': 'b', 'gender_guess': 'm', 'quality': '3', 'quality_eyes': '3', 'quality_mouth': '3', 'quality_ears': '3', 'quality_hair': '3', 'quality_neck': '3', 'facial_hair': '3.0', 'notes': 'beard', 'race_common': 'black', 'gender_common': 'man'}",,,,,,,,,,,,,,,,,,,,,,,,,,,,,,,,,,,,,,,,,,,,,,626384f0f847f13af3ed5e69,62635315c2c7645fef78b5e5,5c638b779e01830001f7127e
6567,6263857406b19921fe99ca43,Chrome,1.0,main_task,0.0,3.0,chris,"4/22/2022, 9:50:00 PM",pgj4xsph70gx0zg8mvfp,0.0-38.0,pilot_prolific_kitchen_sink,37,woman,125,2.0,white,25L,U,3499.0,"['../stimuli/version1_gray_lm/id054_25R_D.png', '../stimuli/version1_gray_lm/id054_00C_C.png', '../stimuli/version1_gray_lm/id125_25L_U.png']",125041.0,0.0,43.0,18.0,encoding,woman,054,"[0, 1]",white,"['25R', '00C']","['D', 'C']",,"{'muct_id': '433', 'lighting': 'x', 'race_guess': 'w', 'gender_guess': 'w', 'quality': '3', 'quality_eyes': '3', 'quality_mouth': '3', 'quality_ears': '3', 'quality_hair': '3', 'quality_neck': '3', 'facial_hair': '0.0', 'notes': None, 'race_common': 'white', 'gender_common': 'woman'}","{'muct_id': '80', 'lighting': 's', 'race_guess': 'b', 'gender_guess': 'w', 'quality': '3', 'quality_eyes': '3', 'quality_mouth': '3', 'quality_ears': '3', 'quality_hair': '3', 'quality_neck': '3', 'facial_hair': '0.0', 'notes': 'earrings', 'race_common': 'white', 'gender_common': 'woman'}",,,,,,,,,,,,,,,,,,,,,,,,,,,,,,,,,,,,,,,,,,,,,,626384f0f847f13af3ed5e69,62635315c2c7645fef78b5e5,5c638b779e01830001f7127e
6568,6263857b06b19921fe99ca44,Chrome,3.0,main_task,0.0,1.0,chris,"4/22/2022, 9:50:08 PM",pgj4xsph70gx0zg8mvfp,0.0-40.0,pilot_prolific_kitchen_sink,40,woman,120,0.0,black,50L,C,7139.0,"['../stimuli/version1_gray_lm/id120_50L_C.png', '../stimuli/version1_gray_lm/id077_00C_D.png', '../stimuli/version1_gray_lm/id077_50R_U.png']",132699.0,0.0,45.0,19.0,encoding,woman,077,"[1, 2]",black,"['00C', '50R']","['D', 'U']",,"{'muct_id': '421', 'lighting': 'x', 'race_guess': 'b', 'gender_guess': 'w', 'quality': '3', 'quality_eyes': '3', 'quality_mouth': '3', 'quality_ears': '3', 'quality_hair': '3', 'quality_neck': '3', 'facial_hair': '0.0', 'notes': None, 'race_common': 'black', 'gender_common': 'woman'}","{'muct_id': '235', 'lighting': 'u', 'race_guess': 'b', 'gender_guess': 'w', 'quality': '3', 'quality_eyes': '3', 'quality_mouth': '3', 'quality_ears': '3', 'quality_hair': '3', 'quality_neck': '3', 'facial_hair': '0.0', 'notes': 'earrings', 'race_common': 'black', 'gender_common': 'woman'}",,,,,,,,,,,,,,,,,,,,,,,,,,,,,,,,,,,,,,,,,,,,,,626384f0f847f13af3ed5e69,62635315c2c7645fef78b5e5,5c638b779e01830001f7127e
6569,6263858406b19921fe99ca45,Chrome,2.0,main_task,1.0,2.0,chris,"4/22/2022, 9:50:17 PM",pgj4xsph70gx0zg8mvfp,0.0-42.0,pilot_prolific_kitchen_sink,39,woman,123,1.0,white,25R,C,1908.0,"['../stimuli/version1_gray_lm/id051_00C_U.png', '../stimuli/version1_gray_lm/id123_25R_C.png', '../stimuli/version1_gray_lm/id051_50L_D.png']",141385.0,0.0,47.0,20.0,encoding,woman,051,"[0, 2]",white,"['00C', '50L']","['U', 'D']",,"{'muct_id': '76', 'lighting': 'q', 'race_guess': 'w', 'gender_guess': 'w', 'quality': '2', 'quality_eyes': '2', 'quality_mouth': '3', 'quality_ears': '2', 'quality_hair': '2', 'quality_neck': '3', 'facial_hair': '0.0', 'notes': 'hair', 'race_common': 'white', 'gender_common': 'woman'}","{'muct_id': '74', 'lighting': 'q', 'race_guess': 'w', 'gender_guess': 'w', 'quality': '3', 'quality_eyes': '3', 'quality_mouth': '3', 'quality_ears': '3', 'quality_hair': '3', 'quality_neck': '3', 'facial_hair': '0.0', 'notes': None, 'race_common': 'white', 'gender_common': 'woman'}",,,,,,,,,,,,,,,,,,,,,,,,,,,,,,,,,,,,,,,,,,,,,,626384f0f847f13af3ed5e69,62635315c2c7645fef78b5e5,5c638b779e01830001f7127e
6570,6263858706b19921fe99ca46,Chrome,3.0,main_task,1.0,3.0,chris,"4/22/2022, 9:50:19 PM",pgj4xsph70gx0zg8mvfp,0.0-44.0,pilot_prolific_kitchen_sink,40,man,122,2.0,black,50L,D,1951.0,"['../stimuli/version1_gray_lm/id081_00C_U.png', '../stimuli/version1_gray_lm/id081_50R_C.png', '../stimuli/version1_gray_lm/id122_50L_D.png']",143949.0,0.0,49.0,21.0,encoding,man,081,"[0, 1]",black,"['00C', '50R']","['U', 'C']",,"{'muct_id': '425', 'lighting': 'x', 'race_guess': 'b', 'gender_guess': 'm', 'quality': '3', 'quality_eyes': '3', 'quality_mouth': '3', 'quality_ears': '3', 'quality_hair': '3', 'quality_neck': '3', 'facial_hair': '2.0', 'notes': None, 'race_common': 'black', 'gender_common': 'man'}","{'muct_id': '241', 'lighting': 't', 'race_guess': 'u', 'gender_guess': 'm', 'quality': '3', 'quality_eyes': '3', 'quality_mouth': '3', 'quality_ears': '3', 'quality_hair': '3', 'quality_neck': '3', 'facial_hair': '1.0', 'notes': 'mouth', 'race_common': 'black', 'gender_common': 'man'}",,,,,,,,,,,,,,,,,,,,,,,,,,,,,,,,,,,,,,,,,,,,,,626384f0f847f13af3ed5e69,62635315c2c7645fef78b5e5,5c638b779e01830001f7127e
6571,6263859706b19921fe99ca47,Chrome,1.0,main_task,1.0,1.0,chris,"4/22/2022, 9:50:36 PM",pgj4xsph70gx0zg8mvfp,0.0-46.0,pilot_prolific_kitchen_sink,37,woman,141,0.0,white,50R,U,1611.0,"['../stimuli/version1_gray_lm/id141_50R_U.png', '../stimuli/version1_gray_lm/id007_50L_D.png', '../stimuli/version1_gray_lm/id007_00C_C.png']",160564.0,0.0,51.0,22.0,encoding,woman,007,"[1, 2]",white,"['50L', '00C']","['D', 'C']",,"{'muct_id': '77', 'lighting': 's', 'race_guess': 'w', 'gender_guess': 'w', 'quality': '3', 'quality_eyes': '3', 'quality_mouth': '3', 'quality_ears': '3', 'quality_hair': '3', 'quality_neck': '3', 'facial_hair': '0.0', 'notes': None, 'race_common': 'white', 'gender_common': 'woman'}","{'muct_id': '7', 'lighting': 's', 'race_guess': 'u', 'gender_guess': 'w', 'quality': '3', 'quality_eyes': '3', 'quality_mouth': '3', 'quality_ears': '3', 'quality_hair': '3', 'quality_neck': '3', 'facial_hair': '0.0', 'notes': None, 'race_common': 'white', 'gender_common': 'woman'}",,,,,,,,,,,,,,,,,,,,,,,,,,,,,,,,,,,,,,,,,,,,,,626384f0f847f13af3ed5e69,62635315c2c7645fef78b5e5,5c638b779e01830001f7127e
6572,6263859a06b19921fe99ca48,Chrome,1.0,main_task,1.0,1.0,chris,"4/22/2022, 9:50:39 PM",pgj4xsph70gx0zg8mvfp,0.0-48.0,pilot_prolific_kitchen_sink,37,man,143,0.0,white,50L,U,2215.0,"['../stimuli/version1_gray_lm/id143_50L_U.png', '../stimuli/version1_gray_lm/id044_25R_D.png', '../stimuli/version1_gray_lm/id044_00C_C.png']",163349.0,0.0,53.0,23.0,encoding,man,044,"[1, 2]",white,"['25R', '00C']","['D', 'C']",,"{'muct_id': '90', 'lighting': 'q', 'race_guess': 'u', 'gender_guess': 'm', 'quality': '2', 'quality_eyes': '3', 'quality_mouth': '3', 'quality_ears': '2', 'quality_hair': '3', 'quality_neck': '3', 'facial_hair': '4.0', 'notes': 'beard', 'race_common': 'white', 'gender_common': 'man'}","{'muct_id': '60', 'lighting': 's', 'race_guess': 'u', 'gender_guess': 'm', 'quality': '3', 'quality_eyes': '3', 'quality_mouth': '3', 'quality_ears': '3', 'quality_hair': '3', 'quality_neck': '3', 'facial_hair': '2.0', 'notes': None, 'race_common': 'white', 'gender_common': 'man'}",,,,,,,,,,,,,,,,,,,,,,,,,,,,,,,,,,,,,,,,,,,,,,626384f0f847f13af3ed5e69,62635315c2c7645fef78b5e5,5c638b779e01830001f7127e
6573,6263859f06b19921fe99ca49,Chrome,2.0,main_task,1.0,2.0,chris,"4/22/2022, 9:50:44 PM",pgj4xsph70gx0zg8mvfp,0.0-50.0,pilot_prolific_kitchen_sink,39,man,124,1.0,black,25L,U,3283.0,"['../stimuli/version1_gray_lm/id030_25R_D.png', '../stimuli/version1_gray_lm/id124_25L_U.png', '../stimuli/version1_gray_lm/id030_00C_C.png']",168297.0,0.0,55.0,24.0,encoding,man,030,"[0, 2]",black,"['25R', '00C']","['D', 'C']",,"{'muct_id': '431', 'lighting': 'x', 'race_guess': 'b', 'gender_guess': 'u', 'quality': '3', 'quality_eyes': '3', 'quality_mouth': '3', 'quality_ears': '3', 'quality_hair': '3', 'quality_neck': '3', 'facial_hair': '0.0', 'notes': 'mouth', 'race_common': 'black', 'gender_common': 'man'}","{'muct_id': '41', 'lighting': 'r', 'race_guess': 'b', 'gender_guess': 'm', 'quality': '3', 'quality_eyes': '3', 'quality_mouth': '3', 'quality_ears': '3', 'quality_hair': '3', 'quality_neck': '3', 'facial_hair': '0.0', 'notes': None, 'race_common': 'black', 'gender_common': 'man'}",,,,,,,,,,,,,,,,,,,,,,,,,,,,,,,,,,,,,,,,,,,,,,626384f0f847f13af3ed5e69,62635315c2c7645fef78b5e5,5c638b779e01830001f7127e
6574,626385a206b19921fe99ca4a,Chrome,3.0,main_task,1.0,3.0,chris,"4/22/2022, 9:50:47 PM",pgj4xsph70gx0zg8mvfp,0.0-52.0,pilot_prolific_kitchen_sink,40,man,145,2.0,white,25R,C,2710.0,"['../stimuli/version1_gray_lm/id094_50L_U.png', '../stimuli/version1_gray_lm/id094_00C_D.png', '../stimuli/version1_gray_lm/id145_25R_C.png']",171631.0,0.0,57.0,25.0,encoding,man,094,"[0, 1]",white,"['50L', '00C']","['U', 'D']",,"{'muct_id': '230', 'lighting': 'u', 'race_guess': 'w', 'gender_guess': 'm', 'quality': '3', 'quality_eyes': '3', 'quality_mouth': '3', 'quality_ears': '3', 'quality_hair': '3', 'quality_neck': '3', 'facial_hair': '0.0', 'notes': 'hair', 'race_common': 'white', 'gender_common': 'man'}","{'muct_id': '264', 'lighting': 't', 'race_guess': 'w', 'gender_guess': 'm', 'quality': '3', 'quality_eyes': '3', 'quality_mouth': '3', 'quality_ears': '3', 'quality_hair': '3', 'quality_neck': '3', 'facial_hair': '0.0', 'notes': None, 'race_common': 'white', 'gender_common': 'man'}",,,,,,,,,,,,,,,,,,,,,,,,,,,,,,,,,,,,,,,,,,,,,,626384f0f847f13af3ed5e69,62635315c2c7645fef78b5e5,5c638b779e01830001f7127e
6575,626385a606b19921fe99ca4b,Chrome,1.0,main_task,0.0,2.0,chris,"4/22/2022, 9:50:50 PM",pgj4xsph70gx0zg8mvfp,0.0-54.0,pilot_prolific_kitchen_sink,37,woman,127,1.0,black,50L,U,2949.0,"['../stimuli/version1_gray_lm/id142_00C_D.png', '../stimuli/version1_gray_lm/id127_50L_U.png', '../stimuli/version1_gray_lm/id142_50R_C.png']",175220.0,0.0,59.0,26.0,encoding,woman,142,"[0, 2]",black,"['00C', '50R']","['D', 'C']",,"{'muct_id': '435', 'lighting': 'x', 'race_guess': 'b', 'gender_guess': 'w', 'quality': '3', 'quality_eyes': '3', 'quality_mouth': '3', 'quality_ears': '3', 'quality_hair': '3', 'quality_neck': '3', 'facial_hair': '0.0', 'notes': 'bandana', 'race_common': 'black', 'gender_common': 'woman'}","{'muct_id': '87', 'lighting': 'r', 'race_guess': 'b', 'gender_guess': 'w', 'quality': '3', 'quality_eyes': '3', 'quality_mouth': '3', 'quality_ears': '3', 'quality_hair': '3', 'quality_neck': '3', 'facial_hair': '0.0', 'notes': 'earrings hair', 'race_common': 'black', 'gender_common': 'woman'}",,,,,,,,,,,,,,,,,,,,,,,,,,,,,,,,,,,,,,,,,,,,,,626384f0f847f13af3ed5e69,62635315c2c7645fef78b5e5,5c638b779e01830001f7127e
6576,626385a806b19921fe99ca4c,Chrome,2.0,main_task,1.0,2.0,chris,"4/22/2022, 9:50:53 PM",pgj4xsph70gx0zg8mvfp,0.0-56.0,pilot_prolific_kitchen_sink,39,man,146,1.0,white,00C,C,2209.0,"['../stimuli/version1_gray_lm/id041_25R_U.png', '../stimuli/version1_gray_lm/id146_00C_C.png', '../stimuli/version1_gray_lm/id041_25L_D.png']",177809.0,0.0,61.0,27.0,encoding,man,041,"[0, 2]",white,"['25R', '25L']","['U', 'D']",,"{'muct_id': '254', 'lighting': 'v', 'race_guess': 'w', 'gender_guess': 'm', 'quality': '2', 'quality_eyes': '2', 'quality_mouth': '3', 'quality_ears': '3', 'quality_hair': '2', 'quality_neck': '3', 'facial_hair': '0.0', 'notes': 'hair', 'race_common': 'white', 'gender_common': 'man'}","{'muct_id': '56', 'lighting': 'q', 'race_guess': 'w', 'gender_guess': 'm', 'quality': '3', 'quality_eyes': '3', 'quality_mouth': '3', 'quality_ears': '3', 'quality_hair': '3', 'quality_neck': '3', 'facial_hair': '0.0', 'notes': None, 'race_common': 'white', 'gender_common': 'man'}",,,,,,,,,,,,,,,,,,,,,,,,,,,,,,,,,,,,,,,,,,,,,,626384f0f847f13af3ed5e69,62635315c2c7645fef78b5e5,5c638b779e01830001f7127e
6577,626385aa06b19921fe99ca4d,Chrome,3.0,main_task,1.0,3.0,chris,"4/23/2022, 12:50:49 AM",s73rlerzmgod55zwnd6f,0.0-2.0-0.0,pilot_prolific_kitchen_sink,40,woman,108,2.0,latinx,25L,C,2242.0,"['../stimuli/version1_gray_lm/id107_00C_D.png', '../stimuli/version1_gray_lm/id107_50R_U.png', '../stimuli/version1_gray_lm/id108_25L_C.png']",76274.0,0.0,2.0,1.0,encoding_practice,man,107,"[0, 1]",latinx,"['00C', '50R']","['D', 'U']",,,,,,,,,,,,,,,,,,,,,,,,,,,,,,,,,,,,,,,,,,,,,,,,,6263853a96e2fa7b4b550c45,62635315c2c7645fef78b5e5,614f775b41afb9276d7018a5
6578,626385ab06b19921fe99ca4e,Chrome,2.0,main_task,1.0,2.0,chris,"4/22/2022, 9:50:55 PM",pgj4xsph70gx0zg8mvfp,0.0-58.0,pilot_prolific_kitchen_sink,39,woman,126,1.0,black,50R,D,1671.0,"['../stimuli/version1_gray_lm/id020_00C_C.png', '../stimuli/version1_gray_lm/id126_50R_D.png', '../stimuli/version1_gray_lm/id020_50L_U.png']",180087.0,0.0,63.0,28.0,encoding,woman,020,"[0, 2]",black,"['00C', '50L']","['C', 'U']",,"{'muct_id': '434', 'lighting': 'w', 'race_guess': 'b', 'gender_guess': 'w', 'quality': '3', 'quality_eyes': '3', 'quality_mouth': '3', 'quality_ears': '3', 'quality_hair': '3', 'quality_neck': '3', 'facial_hair': '0.0', 'notes': 'earrings', 'race_common': 'black', 'gender_common': 'woman'}","{'muct_id': '24', 'lighting': 'q', 'race_guess': 'b', 'gender_guess': 'w', 'quality': '3', 'quality_eyes': '3', 'quality_mouth': '3', 'quality_ears': '3', 'quality_hair': '3', 'quality_neck': '3', 'facial_hair': '0.0', 'notes': None, 'race_common': 'black', 'gender_common': 'woman'}",,,,,,,,,,,,,,,,,,,,,,,,,,,,,,,,,,,,,,,,,,,,,,626384f0f847f13af3ed5e69,62635315c2c7645fef78b5e5,5c638b779e01830001f7127e
6579,626385ae06b19921fe99ca4f,Chrome,2.0,main_task,1.0,2.0,chris,"4/22/2022, 9:50:58 PM",pgj4xsph70gx0zg8mvfp,0.0-60.0,pilot_prolific_kitchen_sink,39,man,132,1.0,black,25R,C,2393.0,"['../stimuli/version1_gray_lm/id001_00C_D.png', '../stimuli/version1_gray_lm/id132_25R_C.png', '../stimuli/version1_gray_lm/id001_25L_U.png']",183188.0,0.0,65.0,29.0,encoding,man,001,"[0, 2]",black,"['00C', '25L']","['D', 'U']",,"{'muct_id': '450', 'lighting': 'w', 'race_guess': 'b', 'gender_guess': 'm', 'quality': '3', 'quality_eyes': '3', 'quality_mouth': '3', 'quality_ears': '3', 'quality_hair': '3', 'quality_neck': '3', 'facial_hair': '4.0', 'notes': 'mouth', 'race_common': 'black', 'gender_common': 'man'}","{'muct_id': '1', 'lighting': 'q', 'race_guess': 'b', 'gender_guess': 'm', 'quality': '3', 'quality_eyes': '3', 'quality_mouth': '3', 'quality_ears': '3', 'quality_hair': '3', 'quality_neck': '3', 'facial_hair': '1.0', 'notes': None, 'race_common': 'black', 'gender_common': 'man'}",,,,,,,,,,,,,,,,,,,,,,,,,,,,,,,,,,,,,,,,,,,,,,626384f0f847f13af3ed5e69,62635315c2c7645fef78b5e5,5c638b779e01830001f7127e
6580,626385af06b19921fe99ca50,Chrome,2.0,main_task,1.0,2.0,chris,"4/23/2022, 12:50:54 AM",s73rlerzmgod55zwnd6f,0.0-2.1-0.1,pilot_prolific_kitchen_sink,39,woman,106,1.0,latinx,00C,U,1581.0,"['../stimuli/version1_gray_lm/id108_50R_C.png', '../stimuli/version1_gray_lm/id106_00C_U.png', '../stimuli/version1_gray_lm/id108_50L_D.png']",81892.0,0.0,4.0,2.0,encoding_practice,woman,108,"[0, 2]",latinx,"['50R', '50L']","['C', 'D']",,,,,,,,,,,,,,,,,,,,,,,,,,,,,,,,,,,,,,,,,,,,,,,,,6263853a96e2fa7b4b550c45,62635315c2c7645fef78b5e5,614f775b41afb9276d7018a5
6581,626385b106b19921fe99ca51,Chrome,1.0,main_task,1.0,1.0,chris,"4/22/2022, 9:51:02 PM",pgj4xsph70gx0zg8mvfp,0.0-62.0,pilot_prolific_kitchen_sink,37,man,128,0.0,black,00C,C,3104.0,"['../stimuli/version1_gray_lm/id128_00C_C.png', '../stimuli/version1_gray_lm/id057_50L_U.png', '../stimuli/version1_gray_lm/id057_25R_D.png']",186840.0,0.0,67.0,30.0,encoding,man,057,"[1, 2]",black,"['50L', '25R']","['U', 'D']",,"{'muct_id': '436', 'lighting': 'w', 'race_guess': 'b', 'gender_guess': 'm', 'quality': '3', 'quality_eyes': '3', 'quality_mouth': '3', 'quality_ears': '3', 'quality_hair': '3', 'quality_neck': '3', 'facial_hair': '3.0', 'notes': 'beard', 'race_common': 'black', 'gender_common': 'man'}","{'muct_id': '83', 'lighting': 'r', 'race_guess': 'b', 'gender_guess': 'm', 'quality': '3', 'quality_eyes': '3', 'quality_mouth': '3', 'quality_ears': '3', 'quality_hair': '3', 'quality_neck': '3', 'facial_hair': '3.0', 'notes': None, 'race_common': 'black', 'gender_common': 'man'}",,,,,,,,,,,,,,,,,,,,,,,,,,,,,,,,,,,,,,,,,,,,,,626384f0f847f13af3ed5e69,62635315c2c7645fef78b5e5,5c638b779e01830001f7127e
6582,626385b206b19921fe99ca52,Chrome,3.0,main_task,1.0,3.0,chris,"4/23/2022, 12:50:57 AM",s73rlerzmgod55zwnd6f,0.0-2.2-0.2,pilot_prolific_kitchen_sink,40,woman,108,2.0,latinx,50R,U,1282.0,"['../stimuli/version1_gray_lm/id107_50L_C.png', '../stimuli/version1_gray_lm/id107_00C_D.png', '../stimuli/version1_gray_lm/id108_50R_U.png']",84931.0,0.0,6.0,3.0,encoding_practice,man,107,"[0, 1]",latinx,"['50L', '00C']","['C', 'D']",1.0,,,,,,,,,,,,,,,,,,,,,,,,,,,,,,,,,,,,,,,,,,,,,,,,6263853a96e2fa7b4b550c45,62635315c2c7645fef78b5e5,614f775b41afb9276d7018a5
6583,626385b406b19921fe99ca53,Chrome,3.0,main_task,1.0,3.0,chris,"4/22/2022, 9:51:05 PM",pgj4xsph70gx0zg8mvfp,0.0-64.0,pilot_prolific_kitchen_sink,40,man,149,2.0,white,50R,C,2304.0,"['../stimuli/version1_gray_lm/id063_50L_U.png', '../stimuli/version1_gray_lm/id063_00C_D.png', '../stimuli/version1_gray_lm/id149_50R_C.png']",189677.0,0.0,69.0,31.0,encoding,man,063,"[0, 1]",white,"['50L', '00C']","['U', 'D']",,"{'muct_id': '416', 'lighting': 'w', 'race_guess': 'w', 'gender_guess': 'm', 'quality': '3', 'quality_eyes': '3', 'quality_mouth': '3', 'quality_ears': '3', 'quality_hair': '3', 'quality_neck': '3', 'facial_hair': '2.0', 'notes': None, 'race_common': 'white', 'gender_common': 'man'}","{'muct_id': '203', 'lighting': 'u', 'race_guess': 'i', 'gender_guess': 'm', 'quality': '2', 'quality_eyes': '2', 'quality_mouth': '3', 'quality_ears': '3', 'quality_hair': '3', 'quality_neck': '3', 'facial_hair': '2.0', 'notes': 'mouth', 'race_common': 'white', 'gender_common': 'man'}",,,,,,,,,,,,,,,,,,,,,,,,,,,,,,,,,,,,,,,,,,,,,,626384f0f847f13af3ed5e69,62635315c2c7645fef78b5e5,5c638b779e01830001f7127e
6584,626385b806b19921fe99ca54,Chrome,1.0,main_task,0.0,3.0,chris,"4/23/2022, 12:51:04 AM",s73rlerzmgod55zwnd6f,0.0-4.0,pilot_prolific_kitchen_sink,37,woman,103,2.0,black,50R,D,1124.0,"['../stimuli/version1_gray_lm/id020_50L_U.png', '../stimuli/version1_gray_lm/id020_00C_C.png', '../stimuli/version1_gray_lm/id103_50R_D.png']",91016.0,0.0,9.0,1.0,encoding,woman,020,"[0, 1]",black,"['50L', '00C']","['U', 'C']",,"{'muct_id': '285', 'lighting': 'v', 'race_guess': 'b', 'gender_guess': 'w', 'quality': '3', 'quality_eyes': '3', 'quality_mouth': '3', 'quality_ears': '3', 'quality_hair': '3', 'quality_neck': '3', 'facial_hair': '0.0', 'notes': 'earrings', 'race_common': 'black', 'gender_common': 'woman'}","{'muct_id': '24', 'lighting': 'q', 'race_guess': 'b', 'gender_guess': 'w', 'quality': '3', 'quality_eyes': '3', 'quality_mouth': '3', 'quality_ears': '3', 'quality_hair': '3', 'quality_neck': '3', 'facial_hair': '0.0', 'notes': None, 'race_common': 'black', 'gender_common': 'woman'}",,,,,,,,,,,,,,,,,,,,,,,,,,,,,,,,,,,,,,,,,,,,,,6263853a96e2fa7b4b550c45,62635315c2c7645fef78b5e5,614f775b41afb9276d7018a5
6585,626385b906b19921fe99ca55,Chrome,1.0,main_task,1.0,1.0,chris,"4/22/2022, 9:51:09 PM",pgj4xsph70gx0zg8mvfp,0.0-66.0,pilot_prolific_kitchen_sink,37,woman,148,0.0,white,00C,D,3721.0,"['../stimuli/version1_gray_lm/id148_00C_D.png', '../stimuli/version1_gray_lm/id018_25R_C.png', '../stimuli/version1_gray_lm/id018_25L_U.png']",193970.0,0.0,71.0,32.0,encoding,woman,018,"[1, 2]",white,"['25R', '25L']","['C', 'U']",,"{'muct_id': '415', 'lighting': 'w', 'race_guess': 'w', 'gender_guess': 'w', 'quality': '3', 'quality_eyes': '3', 'quality_mouth': '3', 'quality_ears': '3', 'quality_hair': '3', 'quality_neck': '3', 'facial_hair': '0.0', 'notes': None, 'race_common': 'white', 'gender_common': 'woman'}","{'muct_id': '21', 'lighting': 'q', 'race_guess': 'w', 'gender_guess': 'w', 'quality': '3', 'quality_eyes': '3', 'quality_mouth': '3', 'quality_ears': '3', 'quality_hair': '3', 'quality_neck': '3', 'facial_hair': '0.0', 'notes': None, 'race_common': 'white', 'gender_common': 'woman'}",,,,,,,,,,,,,,,,,,,,,,,,,,,,,,,,,,,,,,,,,,,,,,626384f0f847f13af3ed5e69,62635315c2c7645fef78b5e5,5c638b779e01830001f7127e
6586,626385bd06b19921fe99ca56,Chrome,2.0,main_task,1.0,2.0,chris,"4/23/2022, 12:51:08 AM",s73rlerzmgod55zwnd6f,0.0-6.0,pilot_prolific_kitchen_sink,39,man,100,1.0,white,00C,C,3117.0,"['../stimuli/version1_gray_lm/id053_25L_U.png', '../stimuli/version1_gray_lm/id100_00C_C.png', '../stimuli/version1_gray_lm/id053_50R_D.png']",95356.0,0.0,11.0,2.0,encoding,man,053,"[0, 2]",white,"['25L', '50R']","['U', 'D']",,"{'muct_id': '280', 'lighting': 'u', 'race_guess': 'w', 'gender_guess': 'm', 'quality': '3', 'quality_eyes': '3', 'quality_mouth': '3', 'quality_ears': '3', 'quality_hair': '3', 'quality_neck': '3', 'facial_hair': '0.0', 'notes': None, 'race_common': 'white', 'gender_common': 'man'}","{'muct_id': '79', 'lighting': 'r', 'race_guess': 'i', 'gender_guess': 'm', 'quality': '2', 'quality_eyes': '2', 'quality_mouth': '3', 'quality_ears': '3', 'quality_hair': '2', 'quality_neck': '3', 'facial_hair': '0.0', 'notes': None, 'race_common': 'white', 'gender_common': 'man'}",,,,,,,,,,,,,,,,,,,,,,,,,,,,,,,,,,,,,,,,,,,,,,6263853a96e2fa7b4b550c45,62635315c2c7645fef78b5e5,614f775b41afb9276d7018a5
6587,626385bd06b19921fe99ca57,Chrome,1.0,main_task,1.0,1.0,chris,"4/22/2022, 9:51:14 PM",pgj4xsph70gx0zg8mvfp,0.0-68.0,pilot_prolific_kitchen_sink,37,woman,151,0.0,white,50L,D,4018.0,"['../stimuli/version1_gray_lm/id151_50L_D.png', '../stimuli/version1_gray_lm/id084_00C_U.png', '../stimuli/version1_gray_lm/id084_50R_C.png']",198515.0,0.0,73.0,33.0,encoding,woman,084,"[1, 2]",white,"['00C', '50R']","['U', 'C']",,"{'muct_id': '444', 'lighting': 'w', 'race_guess': 'w', 'gender_guess': 'w', 'quality': '3', 'quality_eyes': '3', 'quality_mouth': '3', 'quality_ears': '3', 'quality_hair': '3', 'quality_neck': '3', 'facial_hair': '0.0', 'notes': None, 'race_common': 'white', 'gender_common': 'woman'}","{'muct_id': '248', 'lighting': 'u', 'race_guess': 'w', 'gender_guess': 'w', 'quality': '3', 'quality_eyes': '3', 'quality_mouth': '3', 'quality_ears': '3', 'quality_hair': '3', 'quality_neck': '3', 'facial_hair': '0.0', 'notes': None, 'race_common': 'white', 'gender_common': 'woman'}",,,,,,,,,,,,,,,,,,,,,,,,,,,,,,,,,,,,,,,,,,,,,,626384f0f847f13af3ed5e69,62635315c2c7645fef78b5e5,5c638b779e01830001f7127e
6588,626385c006b19921fe99ca58,Chrome,2.0,main_task,1.0,2.0,chris,"4/22/2022, 9:51:17 PM",pgj4xsph70gx0zg8mvfp,0.0-70.0,pilot_prolific_kitchen_sink,39,woman,136,1.0,black,50L,U,2410.0,"['../stimuli/version1_gray_lm/id027_00C_C.png', '../stimuli/version1_gray_lm/id136_50L_U.png', '../stimuli/version1_gray_lm/id027_25R_D.png']",201495.0,0.0,75.0,34.0,encoding,woman,027,"[0, 2]",black,"['00C', '25R']","['C', 'D']",,"{'muct_id': '616', 'lighting': 'y', 'race_guess': 'b', 'gender_guess': 'w', 'quality': '3', 'quality_eyes': '3', 'quality_mouth': '3', 'quality_ears': '3', 'quality_hair': '3', 'quality_neck': '3', 'facial_hair': '0.0', 'notes': 'earrings', 'race_common': 'black', 'gender_common': 'woman'}","{'muct_id': '37', 'lighting': 'q', 'race_guess': 'b', 'gender_guess': 'w', 'quality': '3', 'quality_eyes': '3', 'quality_mouth': '3', 'quality_ears': '3', 'quality_hair': '3', 'quality_neck': '3', 'facial_hair': '0.0', 'notes': 'earrings', 'race_common': 'black', 'gender_common': 'woman'}",,,,,,,,,,,,,,,,,,,,,,,,,,,,,,,,,,,,,,,,,,,,,,626384f0f847f13af3ed5e69,62635315c2c7645fef78b5e5,5c638b779e01830001f7127e
6589,626385c006b19921fe99ca59,Chrome,3.0,main_task,1.0,3.0,chris,"4/23/2022, 12:51:11 AM",s73rlerzmgod55zwnd6f,0.0-8.0,pilot_prolific_kitchen_sink,40,man,105,2.0,black,25R,U,1265.0,"['../stimuli/version1_gray_lm/id057_00C_C.png', '../stimuli/version1_gray_lm/id057_25L_D.png', '../stimuli/version1_gray_lm/id105_25R_U.png']",98931.0,0.0,13.0,3.0,encoding,man,057,"[0, 1]",black,"['00C', '25L']","['C', 'D']",,"{'muct_id': '290', 'lighting': 't', 'race_guess': 'b', 'gender_guess': 'm', 'quality': '3', 'quality_eyes': '3', 'quality_mouth': '3', 'quality_ears': '3', 'quality_hair': '3', 'quality_neck': '3', 'facial_hair': '2.0', 'notes': None, 'race_common': 'black', 'gender_common': 'man'}","{'muct_id': '83', 'lighting': 'r', 'race_guess': 'b', 'gender_guess': 'm', 'quality': '3', 'quality_eyes': '3', 'quality_mouth': '3', 'quality_ears': '3', 'quality_hair': '3', 'quality_neck': '3', 'facial_hair': '3.0', 'notes': None, 'race_common': 'black', 'gender_common': 'man'}",,,,,,,,,,,,,,,,,,,,,,,,,,,,,,,,,,,,,,,,,,,,,,6263853a96e2fa7b4b550c45,62635315c2c7645fef78b5e5,614f775b41afb9276d7018a5
6590,626385c306b19921fe99ca5a,Chrome,3.0,main_task,1.0,3.0,chris,"4/22/2022, 9:51:20 PM",pgj4xsph70gx0zg8mvfp,0.0-72.0,pilot_prolific_kitchen_sink,40,woman,152,2.0,white,00C,C,2725.0,"['../stimuli/version1_gray_lm/id029_50L_D.png', '../stimuli/version1_gray_lm/id029_50R_U.png', '../stimuli/version1_gray_lm/id152_00C_C.png']",204796.0,0.0,77.0,35.0,encoding,woman,029,"[0, 1]",white,"['50L', '50R']","['D', 'U']",,"{'muct_id': '446', 'lighting': 'w', 'race_guess': 'w', 'gender_guess': 'w', 'quality': '3', 'quality_eyes': '3', 'quality_mouth': '3', 'quality_ears': '3', 'quality_hair': '3', 'quality_neck': '3', 'facial_hair': '0.0', 'notes': None, 'race_common': 'white', 'gender_common': 'woman'}","{'muct_id': '39', 'lighting': 'r', 'race_guess': 'w', 'gender_guess': 'w', 'quality': '3', 'quality_eyes': '3', 'quality_mouth': '3', 'quality_ears': '3', 'quality_hair': '3', 'quality_neck': '3', 'facial_hair': '0.0', 'notes': 'earrings hair', 'race_common': 'white', 'gender_common': 'woman'}",,,,,,,,,,,,,,,,,,,,,,,,,,,,,,,,,,,,,,,,,,,,,,626384f0f847f13af3ed5e69,62635315c2c7645fef78b5e5,5c638b779e01830001f7127e
6591,626385c406b19921fe99ca5b,Chrome,2.0,main_task,0.0,3.0,chris,"4/23/2022, 12:51:15 AM",s73rlerzmgod55zwnd6f,0.0-10.0,pilot_prolific_kitchen_sink,39,woman,101,2.0,white,25R,D,1297.0,"['../stimuli/version1_gray_lm/id018_00C_C.png', '../stimuli/version1_gray_lm/id018_25L_U.png', '../stimuli/version1_gray_lm/id101_25R_D.png']",102822.0,0.0,15.0,4.0,encoding,woman,018,"[0, 1]",white,"['00C', '25L']","['C', 'U']",,"{'muct_id': '281', 'lighting': 't', 'race_guess': 'w', 'gender_guess': 'w', 'quality': '3', 'quality_eyes': '3', 'quality_mouth': '3', 'quality_ears': '3', 'quality_hair': '3', 'quality_neck': '3', 'facial_hair': '0.0', 'notes': None, 'race_common': 'white', 'gender_common': 'woman'}","{'muct_id': '21', 'lighting': 'q', 'race_guess': 'w', 'gender_guess': 'w', 'quality': '3', 'quality_eyes': '3', 'quality_mouth': '3', 'quality_ears': '3', 'quality_hair': '3', 'quality_neck': '3', 'facial_hair': '0.0', 'notes': None, 'race_common': 'white', 'gender_common': 'woman'}",,,,,,,,,,,,,,,,,,,,,,,,,,,,,,,,,,,,,,,,,,,,,,6263853a96e2fa7b4b550c45,62635315c2c7645fef78b5e5,614f775b41afb9276d7018a5
6592,626385c606b19921fe99ca5c,Chrome,2.0,main_task,1.0,2.0,chris,"4/22/2022, 9:51:23 PM",pgj4xsph70gx0zg8mvfp,0.0-74.0,pilot_prolific_kitchen_sink,39,woman,133,1.0,black,00C,D,2154.0,"['../stimuli/version1_gray_lm/id069_25R_U.png', '../stimuli/version1_gray_lm/id133_00C_D.png', '../stimuli/version1_gray_lm/id069_50L_C.png']",207700.0,0.0,79.0,36.0,encoding,woman,069,"[0, 2]",black,"['25R', '50L']","['U', 'C']",,"{'muct_id': '601', 'lighting': 'y', 'race_guess': 'b', 'gender_guess': 'w', 'quality': '3', 'quality_eyes': '3', 'quality_mouth': '3', 'quality_ears': '3', 'quality_hair': '3', 'quality_neck': '3', 'facial_hair': '0.0', 'notes': 'mouth', 'race_common': 'black', 'gender_common': 'woman'}","{'muct_id': '218', 'lighting': 't', 'race_guess': 'b', 'gender_guess': 'w', 'quality': '3', 'quality_eyes': '3', 'quality_mouth': '3', 'quality_ears': '3', 'quality_hair': '3', 'quality_neck': '3', 'facial_hair': '0.0', 'notes': None, 'race_common': 'black', 'gender_common': 'woman'}",,,,,,,,,,,,,,,,,,,,,,,,,,,,,,,,,,,,,,,,,,,,,,626384f0f847f13af3ed5e69,62635315c2c7645fef78b5e5,5c638b779e01830001f7127e
6593,626385c906b19921fe99ca5d,Chrome,3.0,main_task,1.0,3.0,chris,"4/22/2022, 9:51:25 PM",pgj4xsph70gx0zg8mvfp,0.0-76.0,pilot_prolific_kitchen_sink,40,man,139,2.0,black,00C,D,1784.0,"['../stimuli/version1_gray_lm/id028_25R_C.png', '../stimuli/version1_gray_lm/id028_50L_U.png', '../stimuli/version1_gray_lm/id139_00C_D.png']",210015.0,0.0,81.0,37.0,encoding,man,028,"[0, 1]",black,"['25R', '50L']","['C', 'U']",,"{'muct_id': '623', 'lighting': 'y', 'race_guess': 'b', 'gender_guess': 'm', 'quality': '3', 'quality_eyes': '3', 'quality_mouth': '3', 'quality_ears': '3', 'quality_hair': '3', 'quality_neck': '3', 'facial_hair': '1.0', 'notes': 'mouth', 'race_common': 'black', 'gender_common': 'man'}","{'muct_id': '38', 'lighting': 'q', 'race_guess': 'b', 'gender_guess': 'm', 'quality': '3', 'quality_eyes': '3', 'quality_mouth': '3', 'quality_ears': '3', 'quality_hair': '3', 'quality_neck': '3', 'facial_hair': '2.0', 'notes': None, 'race_common': 'black', 'gender_common': 'man'}",,,,,,,,,,,,,,,,,,,,,,,,,,,,,,,,,,,,,,,,,,,,,,626384f0f847f13af3ed5e69,62635315c2c7645fef78b5e5,5c638b779e01830001f7127e
6594,626385c906b19921fe99ca5e,Chrome,3.0,main_task,1.0,3.0,chris,"4/23/2022, 12:51:21 AM",s73rlerzmgod55zwnd6f,0.0-12.0,pilot_prolific_kitchen_sink,40,woman,102,2.0,white,50R,C,2448.0,"['../stimuli/version1_gray_lm/id088_25L_D.png', '../stimuli/version1_gray_lm/id088_00C_U.png', '../stimuli/version1_gray_lm/id102_50R_C.png']",108009.0,0.0,17.0,5.0,encoding,woman,088,"[0, 1]",white,"['25L', '00C']","['D', 'U']",,"{'muct_id': '283', 'lighting': 't', 'race_guess': 'i', 'gender_guess': 'w', 'quality': '3', 'quality_eyes': '3', 'quality_mouth': '3', 'quality_ears': '3', 'quality_hair': '3', 'quality_neck': '3', 'facial_hair': '0.0', 'notes': 'pottu', 'race_common': 'white', 'gender_common': 'woman'}","{'muct_id': '252', 'lighting': 't', 'race_guess': 'w', 'gender_guess': 'w', 'quality': '3', 'quality_eyes': '3', 'quality_mouth': '3', 'quality_ears': '3', 'quality_hair': '3', 'quality_neck': '3', 'facial_hair': '0.0', 'notes': 'hair', 'race_common': 'white', 'gender_common': 'woman'}",,,,,,,,,,,,,,,,,,,,,,,,,,,,,,,,,,,,,,,,,,,,,,6263853a96e2fa7b4b550c45,62635315c2c7645fef78b5e5,614f775b41afb9276d7018a5
6595,626385cd06b19921fe99ca5f,Chrome,2.0,main_task,1.0,2.0,chris,"4/22/2022, 9:51:30 PM",pgj4xsph70gx0zg8mvfp,0.0-78.0,pilot_prolific_kitchen_sink,39,man,137,1.0,black,25L,C,3715.0,"['../stimuli/version1_gray_lm/id097_00C_D.png', '../stimuli/version1_gray_lm/id137_25L_C.png', '../stimuli/version1_gray_lm/id097_25R_U.png']",214340.0,0.0,83.0,38.0,encoding,man,097,"[0, 2]",black,"['00C', '25R']","['D', 'U']",,"{'muct_id': '617', 'lighting': 'y', 'race_guess': 'b', 'gender_guess': 'w', 'quality': '3', 'quality_eyes': '3', 'quality_mouth': '3', 'quality_ears': '3', 'quality_hair': '3', 'quality_neck': '3', 'facial_hair': '0.0', 'notes': 'mouth', 'race_common': 'black', 'gender_common': 'man'}","{'muct_id': '269', 'lighting': 'u', 'race_guess': 'b', 'gender_guess': 'm', 'quality': '3', 'quality_eyes': '3', 'quality_mouth': '3', 'quality_ears': '3', 'quality_hair': '3', 'quality_neck': '3', 'facial_hair': '0.0', 'notes': None, 'race_common': 'black', 'gender_common': 'man'}",,,,,,,,,,,,,,,,,,,,,,,,,,,,,,,,,,,,,,,,,,,,,,626384f0f847f13af3ed5e69,62635315c2c7645fef78b5e5,5c638b779e01830001f7127e
6596,626385cd06b19921fe99ca60,Chrome,2.0,main_task,1.0,2.0,chris,"4/23/2022, 12:51:24 AM",s73rlerzmgod55zwnd6f,0.0-14.0,pilot_prolific_kitchen_sink,39,woman,111,1.0,black,00C,C,2521.0,"['../stimuli/version1_gray_lm/id035_25R_D.png', '../stimuli/version1_gray_lm/id111_00C_C.png', '../stimuli/version1_gray_lm/id035_25L_U.png']",111625.0,0.0,19.0,6.0,encoding,woman,035,"[0, 2]",black,"['25R', '25L']","['D', 'U']",,"{'muct_id': '405', 'lighting': 'w', 'race_guess': 'b', 'gender_guess': 'w', 'quality': '3', 'quality_eyes': '3', 'quality_mouth': '3', 'quality_ears': '3', 'quality_hair': '3', 'quality_neck': '3', 'facial_hair': '0.0', 'notes': 'hair earrings', 'race_common': 'black', 'gender_common': 'woman'}","{'muct_id': '46', 'lighting': 'q', 'race_guess': 'b', 'gender_guess': 'w', 'quality': '3', 'quality_eyes': '3', 'quality_mouth': '3', 'quality_ears': '3', 'quality_hair': '3', 'quality_neck': '3', 'facial_hair': '0.0', 'notes': 'earrings', 'race_common': 'black', 'gender_common': 'woman'}",,,,,,,,,,,,,,,,,,,,,,,,,,,,,,,,,,,,,,,,,,,,,,6263853a96e2fa7b4b550c45,62635315c2c7645fef78b5e5,614f775b41afb9276d7018a5
6597,626385d006b19921fe99ca61,Chrome,2.0,main_task,0.0,3.0,chris,"4/23/2022, 12:51:27 AM",s73rlerzmgod55zwnd6f,0.0-16.0,pilot_prolific_kitchen_sink,39,man,112,2.0,black,25R,D,1608.0,"['../stimuli/version1_gray_lm/id064_00C_C.png', '../stimuli/version1_gray_lm/id064_25L_U.png', '../stimuli/version1_gray_lm/id112_25R_D.png']",114570.0,0.0,21.0,7.0,encoding,man,064,"[0, 1]",black,"['00C', '25L']","['C', 'U']",,"{'muct_id': '406', 'lighting': 'w', 'race_guess': 'b', 'gender_guess': 'm', 'quality': '3', 'quality_eyes': '3', 'quality_mouth': '3', 'quality_ears': '3', 'quality_hair': '3', 'quality_neck': '3', 'facial_hair': '1.0', 'notes': None, 'race_common': 'black', 'gender_common': 'man'}","{'muct_id': '204', 'lighting': 't', 'race_guess': 'b', 'gender_guess': 'm', 'quality': '3', 'quality_eyes': '3', 'quality_mouth': '3', 'quality_ears': '3', 'quality_hair': '3', 'quality_neck': '3', 'facial_hair': '1.0', 'notes': None, 'race_common': 'black', 'gender_common': 'man'}",,,,,,,,,,,,,,,,,,,,,,,,,,,,,,,,,,,,,,,,,,,,,,6263853a96e2fa7b4b550c45,62635315c2c7645fef78b5e5,614f775b41afb9276d7018a5
6598,626385d206b19921fe99ca62,Chrome,1.0,main_task,0.0,3.0,chris,"4/22/2022, 9:51:35 PM",pgj4xsph70gx0zg8mvfp,0.0-80.0,pilot_prolific_kitchen_sink,37,woman,153,2.0,white,25R,D,4604.0,"['../stimuli/version1_gray_lm/id031_25L_C.png', '../stimuli/version1_gray_lm/id031_00C_U.png', '../stimuli/version1_gray_lm/id153_25R_D.png']",219531.0,0.0,85.0,39.0,encoding,woman,031,"[0, 1]",white,"['25L', '00C']","['C', 'U']",,"{'muct_id': '437', 'lighting': 'x', 'race_guess': 'w', 'gender_guess': 'w', 'quality': '3', 'quality_eyes': '3', 'quality_mouth': '3', 'quality_ears': '3', 'quality_hair': '3', 'quality_neck': '3', 'facial_hair': '0.0', 'notes': 'hair', 'race_common': 'white', 'gender_common': 'woman'}","{'muct_id': '42', 'lighting': 'q', 'race_guess': 'u', 'gender_guess': 'w', 'quality': '2', 'quality_eyes': '3', 'quality_mouth': '3', 'quality_ears': '2', 'quality_hair': '3', 'quality_neck': '3', 'facial_hair': '0.0', 'notes': 'mouth', 'race_common': 'white', 'gender_common': 'woman'}",,,,,,,,,,,,,,,,,,,,,,,,,,,,,,,,,,,,,,,,,,,,,,626384f0f847f13af3ed5e69,62635315c2c7645fef78b5e5,5c638b779e01830001f7127e
6599,626385d306b19921fe99ca63,Chrome,3.0,main_task,1.0,3.0,chris,"4/23/2022, 12:51:30 AM",s73rlerzmgod55zwnd6f,0.0-18.0,pilot_prolific_kitchen_sink,40,man,104,2.0,white,50R,D,1475.0,"['../stimuli/version1_gray_lm/id063_00C_U.png', '../stimuli/version1_gray_lm/id063_25L_C.png', '../stimuli/version1_gray_lm/id104_50R_D.png']",117270.0,0.0,23.0,8.0,encoding,man,063,"[0, 1]",white,"['00C', '25L']","['U', 'C']",,"{'muct_id': '287', 'lighting': 't', 'race_guess': 'w', 'gender_guess': 'm', 'quality': '3', 'quality_eyes': '3', 'quality_mouth': '3', 'quality_ears': '3', 'quality_hair': '3', 'quality_neck': '3', 'facial_hair': '2.0', 'notes': None, 'race_common': 'white', 'gender_common': 'man'}","{'muct_id': '203', 'lighting': 'u', 'race_guess': 'i', 'gender_guess': 'm', 'quality': '2', 'quality_eyes': '2', 'quality_mouth': '3', 'quality_ears': '3', 'quality_hair': '3', 'quality_neck': '3', 'facial_hair': '2.0', 'notes': 'mouth', 'race_common': 'white', 'gender_common': 'man'}",,,,,,,,,,,,,,,,,,,,,,,,,,,,,,,,,,,,,,,,,,,,,,6263853a96e2fa7b4b550c45,62635315c2c7645fef78b5e5,614f775b41afb9276d7018a5
6600,626385d606b19921fe99ca64,Chrome,1.0,main_task,1.0,1.0,chris,"4/22/2022, 9:51:38 PM",pgj4xsph70gx0zg8mvfp,0.0-82.0,pilot_prolific_kitchen_sink,37,woman,155,0.0,white,00C,C,3049.0,"['../stimuli/version1_gray_lm/id155_00C_C.png', '../stimuli/version1_gray_lm/id003_50L_U.png', '../stimuli/version1_gray_lm/id003_25R_D.png']",223159.0,0.0,87.0,40.0,encoding,woman,003,"[1, 2]",white,"['50L', '25R']","['U', 'D']",,"{'muct_id': '615', 'lighting': 'z', 'race_guess': 'w', 'gender_guess': 'w', 'quality': '3', 'quality_eyes': '3', 'quality_mouth': '3', 'quality_ears': '3', 'quality_hair': '3', 'quality_neck': '3', 'facial_hair': '0.0', 'notes': 'earrings', 'race_common': 'white', 'gender_common': 'woman'}","{'muct_id': '3', 'lighting': 's', 'race_guess': 'i', 'gender_guess': 'w', 'quality': '2', 'quality_eyes': '3', 'quality_mouth': '3', 'quality_ears': '3', 'quality_hair': '2', 'quality_neck': '3', 'facial_hair': '0.0', 'notes': 'hair', 'race_common': 'white', 'gender_common': 'woman'}",,,,,,,,,,,,,,,,,,,,,,,,,,,,,,,,,,,,,,,,,,,,,,626384f0f847f13af3ed5e69,62635315c2c7645fef78b5e5,5c638b779e01830001f7127e
6601,626385d706b19921fe99ca65,Chrome,2.0,main_task,1.0,2.0,chris,"4/23/2022, 12:51:35 AM",s73rlerzmgod55zwnd6f,0.0-20.0,pilot_prolific_kitchen_sink,39,man,113,1.0,black,50R,D,2926.0,"['../stimuli/version1_gray_lm/id056_50L_C.png', '../stimuli/version1_gray_lm/id113_50R_D.png', '../stimuli/version1_gray_lm/id056_00C_U.png']",122030.0,0.0,25.0,9.0,encoding,man,056,"[0, 2]",black,"['50L', '00C']","['C', 'U']",,"{'muct_id': '407', 'lighting': 'x', 'race_guess': 'u', 'gender_guess': 'm', 'quality': '3', 'quality_eyes': '3', 'quality_mouth': '3', 'quality_ears': '3', 'quality_hair': '3', 'quality_neck': '3', 'facial_hair': '3.0', 'notes': 'beard', 'race_common': 'black', 'gender_common': 'man'}","{'muct_id': '82', 'lighting': 'q', 'race_guess': 'b', 'gender_guess': 'm', 'quality': '3', 'quality_eyes': '3', 'quality_mouth': '3', 'quality_ears': '3', 'quality_hair': '3', 'quality_neck': '3', 'facial_hair': '1.0', 'notes': None, 'race_common': 'black', 'gender_common': 'man'}",,,,,,,,,,,,,,,,,,,,,,,,,,,,,,,,,,,,,,,,,,,,,,6263853a96e2fa7b4b550c45,62635315c2c7645fef78b5e5,614f775b41afb9276d7018a5
6602,626385db06b19921fe99ca66,Chrome,1.0,main_task,1.0,1.0,chris,"4/23/2022, 12:51:38 AM",s73rlerzmgod55zwnd6f,0.0-22.0,pilot_prolific_kitchen_sink,37,woman,109,0.0,white,00C,D,2234.0,"['../stimuli/version1_gray_lm/id109_00C_D.png', '../stimuli/version1_gray_lm/id003_50R_C.png', '../stimuli/version1_gray_lm/id003_25L_U.png']",125733.0,0.0,27.0,10.0,encoding,woman,003,"[1, 2]",white,"['50R', '25L']","['C', 'U']",,"{'muct_id': '401', 'lighting': 'w', 'race_guess': 'w', 'gender_guess': 'w', 'quality': '3', 'quality_eyes': '3', 'quality_mouth': '3', 'quality_ears': '3', 'quality_hair': '3', 'quality_neck': '3', 'facial_hair': '0.0', 'notes': 'mouth', 'race_common': 'white', 'gender_common': 'woman'}","{'muct_id': '3', 'lighting': 's', 'race_guess': 'i', 'gender_guess': 'w', 'quality': '2', 'quality_eyes': '3', 'quality_mouth': '3', 'quality_ears': '3', 'quality_hair': '2', 'quality_neck': '3', 'facial_hair': '0.0', 'notes': 'hair', 'race_common': 'white', 'gender_common': 'woman'}",,,,,,,,,,,,,,,,,,,,,,,,,,,,,,,,,,,,,,,,,,,,,,6263853a96e2fa7b4b550c45,62635315c2c7645fef78b5e5,614f775b41afb9276d7018a5
6603,626385de06b19921fe99ca67,Chrome,2.0,main_task,1.0,2.0,chris,"4/22/2022, 9:51:47 PM",pgj4xsph70gx0zg8mvfp,0.0-84.0,pilot_prolific_kitchen_sink,39,man,115,1.0,white,50L,U,7717.0,"['../stimuli/version1_gray_lm/id049_00C_D.png', '../stimuli/version1_gray_lm/id115_50L_U.png', '../stimuli/version1_gray_lm/id049_25R_C.png']",231438.0,0.0,89.0,41.0,encoding,man,049,"[0, 2]",white,"['00C', '25R']","['D', 'C']",,"{'muct_id': '412', 'lighting': 'x', 'race_guess': 'w', 'gender_guess': 'm', 'quality': '3', 'quality_eyes': '3', 'quality_mouth': '3', 'quality_ears': '3', 'quality_hair': '3', 'quality_neck': '3', 'facial_hair': '0.0', 'notes': None, 'race_common': 'white', 'gender_common': 'man'}","{'muct_id': '66', 'lighting': 'r', 'race_guess': 'w', 'gender_guess': 'm', 'quality': '3', 'quality_eyes': '3', 'quality_mouth': '3', 'quality_ears': '3', 'quality_hair': '3', 'quality_neck': '3', 'facial_hair': '0.0', 'notes': None, 'race_common': 'white', 'gender_common': 'man'}",,,,,,,,,,,,,,,,,,,,,,,,,,,,,,,,,,,,,,,,,,,,,,626384f0f847f13af3ed5e69,62635315c2c7645fef78b5e5,5c638b779e01830001f7127e
6604,626385df06b19921fe99ca68,Chrome,2.0,main_task,1.0,2.0,chris,"4/23/2022, 12:51:42 AM",s73rlerzmgod55zwnd6f,0.0-24.0,pilot_prolific_kitchen_sink,39,woman,114,1.0,white,50R,D,2416.0,"['../stimuli/version1_gray_lm/id054_00C_U.png', '../stimuli/version1_gray_lm/id114_50R_D.png', '../stimuli/version1_gray_lm/id054_50L_C.png']",129318.0,0.0,29.0,11.0,encoding,woman,054,"[0, 2]",white,"['00C', '50L']","['U', 'C']",,"{'muct_id': '410', 'lighting': 'w', 'race_guess': 'w', 'gender_guess': 'w', 'quality': '3', 'quality_eyes': '3', 'quality_mouth': '3', 'quality_ears': '3', 'quality_hair': '3', 'quality_neck': '3', 'facial_hair': '0.0', 'notes': 'makeup mouth', 'race_common': 'white', 'gender_common': 'woman'}","{'muct_id': '80', 'lighting': 's', 'race_guess': 'b', 'gender_guess': 'w', 'quality': '3', 'quality_eyes': '3', 'quality_mouth': '3', 'quality_ears': '3', 'quality_hair': '3', 'quality_neck': '3', 'facial_hair': '0.0', 'notes': 'earrings', 'race_common': 'white', 'gender_common': 'woman'}",,,,,,,,,,,,,,,,,,,,,,,,,,,,,,,,,,,,,,,,,,,,,,6263853a96e2fa7b4b550c45,62635315c2c7645fef78b5e5,614f775b41afb9276d7018a5
6605,626385e106b19921fe99ca69,Chrome,2.0,main_task,1.0,2.0,chris,"4/22/2022, 9:51:50 PM",pgj4xsph70gx0zg8mvfp,0.0-86.0,pilot_prolific_kitchen_sink,39,man,100,1.0,white,50L,U,2586.0,"['../stimuli/version1_gray_lm/id099_00C_D.png', '../stimuli/version1_gray_lm/id100_50L_U.png', '../stimuli/version1_gray_lm/id099_50R_C.png']",234624.0,0.0,91.0,42.0,encoding,man,099,"[0, 2]",white,"['00C', '50R']","['D', 'C']",,"{'muct_id': '280', 'lighting': 'u', 'race_guess': 'w', 'gender_guess': 'm', 'quality': '3', 'quality_eyes': '3', 'quality_mouth': '3', 'quality_ears': '3', 'quality_hair': '3', 'quality_neck': '3', 'facial_hair': '0.0', 'notes': None, 'race_common': 'white', 'gender_common': 'man'}","{'muct_id': '278', 'lighting': 't', 'race_guess': 'w', 'gender_guess': 'm', 'quality': '3', 'quality_eyes': '3', 'quality_mouth': '3', 'quality_ears': '3', 'quality_hair': '3', 'quality_neck': '3', 'facial_hair': '0.0', 'notes': None, 'race_common': 'white', 'gender_common': 'man'}",,,,,,,,,,,,,,,,,,,,,,,,,,,,,,,,,,,,,,,,,,,,,,626384f0f847f13af3ed5e69,62635315c2c7645fef78b5e5,5c638b779e01830001f7127e
6606,626385e106b19921fe99ca6a,Chrome,3.0,main_task,1.0,3.0,chris,"4/23/2022, 12:51:44 AM",s73rlerzmgod55zwnd6f,0.0-26.0,pilot_prolific_kitchen_sink,40,man,117,2.0,black,25L,C,1552.0,"['../stimuli/version1_gray_lm/id028_00C_D.png', '../stimuli/version1_gray_lm/id028_50R_U.png', '../stimuli/version1_gray_lm/id117_25L_C.png']",131780.0,0.0,31.0,12.0,encoding,man,028,"[0, 1]",black,"['00C', '50R']","['D', 'U']",,"{'muct_id': '417', 'lighting': 'w', 'race_guess': 'b', 'gender_guess': 'm', 'quality': '3', 'quality_eyes': '3', 'quality_mouth': '3', 'quality_ears': '3', 'quality_hair': '3', 'quality_neck': '3', 'facial_hair': '1.0', 'notes': 'mouth', 'race_common': 'black', 'gender_common': 'man'}","{'muct_id': '38', 'lighting': 'q', 'race_guess': 'b', 'gender_guess': 'm', 'quality': '3', 'quality_eyes': '3', 'quality_mouth': '3', 'quality_ears': '3', 'quality_hair': '3', 'quality_neck': '3', 'facial_hair': '2.0', 'notes': None, 'race_common': 'black', 'gender_common': 'man'}",,,,,,,,,,,,,,,,,,,,,,,,,,,,,,,,,,,,,,,,,,,,,,6263853a96e2fa7b4b550c45,62635315c2c7645fef78b5e5,614f775b41afb9276d7018a5
6607,626385e406b19921fe99ca6b,Chrome,3.0,main_task,1.0,3.0,chris,"4/23/2022, 12:51:47 AM",s73rlerzmgod55zwnd6f,0.0-28.0,pilot_prolific_kitchen_sink,40,man,116,2.0,white,50L,U,1451.0,"['../stimuli/version1_gray_lm/id049_25R_C.png', '../stimuli/version1_gray_lm/id049_00C_D.png', '../stimuli/version1_gray_lm/id116_50L_U.png']",134296.0,0.0,33.0,13.0,encoding,man,049,"[0, 1]",white,"['25R', '00C']","['C', 'D']",,"{'muct_id': '414', 'lighting': 'w', 'race_guess': 'w', 'gender_guess': 'm', 'quality': '3', 'quality_eyes': '3', 'quality_mouth': '3', 'quality_ears': '3', 'quality_hair': '3', 'quality_neck': '3', 'facial_hair': '0.0', 'notes': None, 'race_common': 'white', 'gender_common': 'man'}","{'muct_id': '66', 'lighting': 'r', 'race_guess': 'w', 'gender_guess': 'm', 'quality': '3', 'quality_eyes': '3', 'quality_mouth': '3', 'quality_ears': '3', 'quality_hair': '3', 'quality_neck': '3', 'facial_hair': '0.0', 'notes': None, 'race_common': 'white', 'gender_common': 'man'}",,,,,,,,,,,,,,,,,,,,,,,,,,,,,,,,,,,,,,,,,,,,,,6263853a96e2fa7b4b550c45,62635315c2c7645fef78b5e5,614f775b41afb9276d7018a5
6608,626385e706b19921fe99ca6c,Chrome,1.0,main_task,1.0,1.0,chris,"4/23/2022, 12:51:50 AM",s73rlerzmgod55zwnd6f,0.0-30.0,pilot_prolific_kitchen_sink,37,man,115,0.0,white,25L,C,1813.0,"['../stimuli/version1_gray_lm/id115_25L_C.png', '../stimuli/version1_gray_lm/id047_25R_D.png', '../stimuli/version1_gray_lm/id047_00C_U.png']",137208.0,0.0,35.0,14.0,encoding,man,047,"[1, 2]",white,"['25R', '00C']","['D', 'U']",,"{'muct_id': '412', 'lighting': 'x', 'race_guess': 'w', 'gender_guess': 'm', 'quality': '3', 'quality_eyes': '3', 'quality_mouth': '3', 'quality_ears': '3', 'quality_hair': '3', 'quality_neck': '3', 'facial_hair': '0.0', 'notes': None, 'race_common': 'white', 'gender_common': 'man'}","{'muct_id': '64', 'lighting': 'q', 'race_guess': 'w', 'gender_guess': 'm', 'quality': '3', 'quality_eyes': '3', 'quality_mouth': '3', 'quality_ears': '3', 'quality_hair': '3', 'quality_neck': '3', 'facial_hair': '0.0', 'notes': None, 'race_common': 'white', 'gender_common': 'man'}",,,,,,,,,,,,,,,,,,,,,,,,,,,,,,,,,,,,,,,,,,,,,,6263853a96e2fa7b4b550c45,62635315c2c7645fef78b5e5,614f775b41afb9276d7018a5
6609,626385e806b19921fe99ca6d,Chrome,3.0,main_task,1.0,3.0,chris,"4/22/2022, 9:51:57 PM",pgj4xsph70gx0zg8mvfp,0.0-88.0,pilot_prolific_kitchen_sink,40,man,143,2.0,white,50L,U,1913.0,"['../stimuli/version1_gray_lm/id044_25R_D.png', '../stimuli/version1_gray_lm/id044_00C_C.png', '../stimuli/version1_gray_lm/id143_50L_U.png']",241311.0,0.0,93.0,43.0,encoding,man,044,"[0, 1]",white,"['25R', '00C']","['D', 'C']",,"{'muct_id': '90', 'lighting': 'q', 'race_guess': 'u', 'gender_guess': 'm', 'quality': '2', 'quality_eyes': '3', 'quality_mouth': '3', 'quality_ears': '2', 'quality_hair': '3', 'quality_neck': '3', 'facial_hair': '4.0', 'notes': 'beard', 'race_common': 'white', 'gender_common': 'man'}","{'muct_id': '60', 'lighting': 's', 'race_guess': 'u', 'gender_guess': 'm', 'quality': '3', 'quality_eyes': '3', 'quality_mouth': '3', 'quality_ears': '3', 'quality_hair': '3', 'quality_neck': '3', 'facial_hair': '2.0', 'notes': None, 'race_common': 'white', 'gender_common': 'man'}",,,,,,,,,,,,,,,,,,,,,,,,,,,,,,,,,,,,,,,,,,,,,,626384f0f847f13af3ed5e69,62635315c2c7645fef78b5e5,5c638b779e01830001f7127e
6610,626385e806b19921fe99ca6e,Chrome,1.0,main_task,1.0,1.0,chris,"4/22/2022, 11:51:56 PM",ykxmwdgr5aph3d056so9,0.0-2.0-0.0,pilot_prolific_kitchen_sink,37,woman,106,0.0,latinx,50L,D,2324.0,"['../stimuli/version1_gray_lm/id106_50L_D.png', '../stimuli/version1_gray_lm/id107_25R_C.png', '../stimuli/version1_gray_lm/id107_00C_U.png']",51374.0,0.0,2.0,1.0,encoding_practice,man,107,"[1, 2]",latinx,"['25R', '00C']","['C', 'U']",,,,,,,,,,,,,,,,,,,,,,,,,,,,,,,,,,,,,,,,,,,,,,,,,626385a97ae850bd4eb8a884,62635315c2c7645fef78b5e6,6138ab48f1aefea4a62b8b9e
6611,626385eb06b19921fe99ca6f,Chrome,3.0,main_task,1.0,3.0,chris,"4/23/2022, 12:51:54 AM",s73rlerzmgod55zwnd6f,0.0-32.0,pilot_prolific_kitchen_sink,40,man,118,2.0,black,25R,C,3111.0,"['../stimuli/version1_gray_lm/id098_00C_D.png', '../stimuli/version1_gray_lm/id098_25L_U.png', '../stimuli/version1_gray_lm/id118_25R_C.png']",141374.0,0.0,37.0,15.0,encoding,man,098,"[0, 1]",black,"['00C', '25L']","['D', 'U']",,"{'muct_id': '419', 'lighting': 'x', 'race_guess': 'b', 'gender_guess': 'm', 'quality': '3', 'quality_eyes': '3', 'quality_mouth': '3', 'quality_ears': '3', 'quality_hair': '3', 'quality_neck': '3', 'facial_hair': '1.0', 'notes': None, 'race_common': 'black', 'gender_common': 'man'}","{'muct_id': '274', 'lighting': 't', 'race_guess': 'b', 'gender_guess': 'm', 'quality': '3', 'quality_eyes': '3', 'quality_mouth': '3', 'quality_ears': '3', 'quality_hair': '3', 'quality_neck': '3', 'facial_hair': '4.0', 'notes': None, 'race_common': 'black', 'gender_common': 'man'}",,,,,,,,,,,,,,,,,,,,,,,,,,,,,,,,,,,,,,,,,,,,,,6263853a96e2fa7b4b550c45,62635315c2c7645fef78b5e5,614f775b41afb9276d7018a5
6612,626385ec06b19921fe99ca70,Chrome,2.0,main_task,1.0,2.0,chris,"4/22/2022, 11:52:00 PM",ykxmwdgr5aph3d056so9,0.0-2.1-0.1,pilot_prolific_kitchen_sink,39,man,107,1.0,latinx,25R,D,1769.0,"['../stimuli/version1_gray_lm/id106_00C_U.png', '../stimuli/version1_gray_lm/id107_25R_D.png', '../stimuli/version1_gray_lm/id106_50L_C.png']",55282.0,0.0,4.0,2.0,encoding_practice,woman,106,"[0, 2]",latinx,"['00C', '50L']","['U', 'C']",,,,,,,,,,,,,,,,,,,,,,,,,,,,,,,,,,,,,,,,,,,,,,,,,626385a97ae850bd4eb8a884,62635315c2c7645fef78b5e6,6138ab48f1aefea4a62b8b9e
6613,626385ee06b19921fe99ca71,Chrome,2.0,main_task,1.0,2.0,chris,"4/22/2022, 11:52:02 PM",ykxmwdgr5aph3d056so9,0.0-2.2-0.2,pilot_prolific_kitchen_sink,39,woman,106,1.0,latinx,25R,U,1120.0,"['../stimuli/version1_gray_lm/id107_00C_C.png', '../stimuli/version1_gray_lm/id106_25R_U.png', '../stimuli/version1_gray_lm/id107_25L_D.png']",57333.0,0.0,6.0,3.0,encoding_practice,man,107,"[0, 2]",latinx,"['00C', '25L']","['C', 'D']",1.0,,,,,,,,,,,,,,,,,,,,,,,,,,,,,,,,,,,,,,,,,,,,,,,,626385a97ae850bd4eb8a884,62635315c2c7645fef78b5e6,6138ab48f1aefea4a62b8b9e
6614,626385ee06b19921fe99ca72,Chrome,2.0,main_task,1.0,2.0,chris,"4/23/2022, 12:51:58 AM",s73rlerzmgod55zwnd6f,0.0-34.0,pilot_prolific_kitchen_sink,39,man,119,1.0,black,50L,D,2605.0,"['../stimuli/version1_gray_lm/id036_50R_C.png', '../stimuli/version1_gray_lm/id119_50L_D.png', '../stimuli/version1_gray_lm/id036_00C_U.png']",145014.0,0.0,39.0,16.0,encoding,man,036,"[0, 2]",black,"['50R', '00C']","['C', 'U']",,"{'muct_id': '420', 'lighting': 'w', 'race_guess': 'b', 'gender_guess': 'm', 'quality': '3', 'quality_eyes': '3', 'quality_mouth': '3', 'quality_ears': '3', 'quality_hair': '3', 'quality_neck': '3', 'facial_hair': '0.0', 'notes': None, 'race_common': 'black', 'gender_common': 'man'}","{'muct_id': '47', 'lighting': 'q', 'race_guess': 'b', 'gender_guess': 'u', 'quality': '3', 'quality_eyes': '3', 'quality_mouth': '3', 'quality_ears': '3', 'quality_hair': '3', 'quality_neck': '3', 'facial_hair': '0.0', 'notes': None, 'race_common': 'black', 'gender_common': 'man'}",,,,,,,,,,,,,,,,,,,,,,,,,,,,,,,,,,,,,,,,,,,,,,6263853a96e2fa7b4b550c45,62635315c2c7645fef78b5e5,614f775b41afb9276d7018a5
6615,626385f206b19921fe99ca73,Chrome,1.0,main_task,1.0,1.0,chris,"4/22/2022, 9:52:07 PM",pgj4xsph70gx0zg8mvfp,0.0-90.0,pilot_prolific_kitchen_sink,37,man,119,0.0,black,00C,C,9012.0,"['../stimuli/version1_gray_lm/id119_00C_C.png', '../stimuli/version1_gray_lm/id036_25L_U.png', '../stimuli/version1_gray_lm/id036_25R_D.png']",251549.0,0.0,95.0,44.0,encoding,man,036,"[1, 2]",black,"['25R', '25L']","['D', 'U']",,"{'muct_id': '420', 'lighting': 'w', 'race_guess': 'b', 'gender_guess': 'm', 'quality': '3', 'quality_eyes': '3', 'quality_mouth': '3', 'quality_ears': '3', 'quality_hair': '3', 'quality_neck': '3', 'facial_hair': '0.0', 'notes': None, 'race_common': 'black', 'gender_common': 'man'}","{'muct_id': '47', 'lighting': 'q', 'race_guess': 'b', 'gender_guess': 'u', 'quality': '3', 'quality_eyes': '3', 'quality_mouth': '3', 'quality_ears': '3', 'quality_hair': '3', 'quality_neck': '3', 'facial_hair': '0.0', 'notes': None, 'race_common': 'black', 'gender_common': 'man'}",,,,,,,,,,,,,,,,,,,,,,,,,,,,,,,,,,,,,,,,,,,,,,626384f0f847f13af3ed5e69,62635315c2c7645fef78b5e5,5c638b779e01830001f7127e
6616,626385f206b19921fe99ca74,Chrome,3.0,main_task,1.0,3.0,chris,"4/23/2022, 12:52:01 AM",s73rlerzmgod55zwnd6f,0.0-36.0,pilot_prolific_kitchen_sink,40,woman,125,2.0,white,00C,C,2848.0,"['../stimuli/version1_gray_lm/id084_50L_D.png', '../stimuli/version1_gray_lm/id084_50R_U.png', '../stimuli/version1_gray_lm/id125_00C_C.png']",148856.0,0.0,41.0,17.0,encoding,woman,084,"[0, 1]",white,"['50L', '50R']","['D', 'U']",,"{'muct_id': '433', 'lighting': 'x', 'race_guess': 'w', 'gender_guess': 'w', 'quality': '3', 'quality_eyes': '3', 'quality_mouth': '3', 'quality_ears': '3', 'quality_hair': '3', 'quality_neck': '3', 'facial_hair': '0.0', 'notes': None, 'race_common': 'white', 'gender_common': 'woman'}","{'muct_id': '248', 'lighting': 'u', 'race_guess': 'w', 'gender_guess': 'w', 'quality': '3', 'quality_eyes': '3', 'quality_mouth': '3', 'quality_ears': '3', 'quality_hair': '3', 'quality_neck': '3', 'facial_hair': '0.0', 'notes': None, 'race_common': 'white', 'gender_common': 'woman'}",,,,,,,,,,,,,,,,,,,,,,,,,,,,,,,,,,,,,,,,,,,,,,6263853a96e2fa7b4b550c45,62635315c2c7645fef78b5e5,614f775b41afb9276d7018a5
6617,626385f506b19921fe99ca75,Chrome,3.0,main_task,1.0,3.0,chris,"4/23/2022, 12:52:04 AM",s73rlerzmgod55zwnd6f,0.0-38.0,pilot_prolific_kitchen_sink,40,woman,123,2.0,white,00C,D,1448.0,"['../stimuli/version1_gray_lm/id076_25L_U.png', '../stimuli/version1_gray_lm/id076_25R_C.png', '../stimuli/version1_gray_lm/id123_00C_D.png']",151180.0,0.0,43.0,18.0,encoding,woman,076,"[0, 1]",white,"['25L', '25R']","['U', 'C']",,"{'muct_id': '76', 'lighting': 'q', 'race_guess': 'w', 'gender_guess': 'w', 'quality': '2', 'quality_eyes': '2', 'quality_mouth': '3', 'quality_ears': '2', 'quality_hair': '2', 'quality_neck': '3', 'facial_hair': '0.0', 'notes': 'hair', 'race_common': 'white', 'gender_common': 'woman'}","{'muct_id': '233', 'lighting': 'u', 'race_guess': 'w', 'gender_guess': 'w', 'quality': '3', 'quality_eyes': '3', 'quality_mouth': '3', 'quality_ears': '3', 'quality_hair': '3', 'quality_neck': '3', 'facial_hair': '0.0', 'notes': 'earrings', 'race_common': 'white', 'gender_common': 'woman'}",,,,,,,,,,,,,,,,,,,,,,,,,,,,,,,,,,,,,,,,,,,,,,6263853a96e2fa7b4b550c45,62635315c2c7645fef78b5e5,614f775b41afb9276d7018a5
6618,626385f606b19921fe99ca76,Chrome,2.0,main_task,1.0,2.0,chris,"4/22/2022, 11:52:10 PM",ykxmwdgr5aph3d056so9,0.0-4.0,pilot_prolific_kitchen_sink,39,man,105,1.0,black,00C,D,2531.0,"['../stimuli/version1_gray_lm/id040_25L_C.png', '../stimuli/version1_gray_lm/id105_00C_D.png', '../stimuli/version1_gray_lm/id040_25R_U.png']",65123.0,0.0,9.0,1.0,encoding,man,040,"[0, 2]",black,"['25L', '25R']","['C', 'U']",,"{'muct_id': '290', 'lighting': 't', 'race_guess': 'b', 'gender_guess': 'm', 'quality': '3', 'quality_eyes': '3', 'quality_mouth': '3', 'quality_ears': '3', 'quality_hair': '3', 'quality_neck': '3', 'facial_hair': '2.0', 'notes': None, 'race_common': 'black', 'gender_common': 'man'}","{'muct_id': '55', 'lighting': 'r', 'race_guess': 'b', 'gender_guess': 'm', 'quality': '3', 'quality_eyes': '3', 'quality_mouth': '3', 'quality_ears': '3', 'quality_hair': '3', 'quality_neck': '3', 'facial_hair': '3.0', 'notes': 'beard', 'race_common': 'black', 'gender_common': 'man'}",,,,,,,,,,,,,,,,,,,,,,,,,,,,,,,,,,,,,,,,,,,,,,626385a97ae850bd4eb8a884,62635315c2c7645fef78b5e6,6138ab48f1aefea4a62b8b9e
6619,626385f706b19921fe99ca77,Chrome,3.0,main_task,1.0,3.0,chris,"4/22/2022, 9:52:11 PM",pgj4xsph70gx0zg8mvfp,0.0-92.0,pilot_prolific_kitchen_sink,40,man,112,2.0,black,50R,C,3909.0,"['../stimuli/version1_gray_lm/id086_00C_U.png', '../stimuli/version1_gray_lm/id086_25L_D.png', '../stimuli/version1_gray_lm/id112_50R_C.png']",255965.0,0.0,97.0,45.0,encoding,man,086,"[0, 1]",black,"['25L', '00C']","['D', 'U']",,"{'muct_id': '406', 'lighting': 'w', 'race_guess': 'b', 'gender_guess': 'm', 'quality': '3', 'quality_eyes': '3', 'quality_mouth': '3', 'quality_ears': '3', 'quality_hair': '3', 'quality_neck': '3', 'facial_hair': '1.0', 'notes': None, 'race_common': 'black', 'gender_common': 'man'}","{'muct_id': '250', 'lighting': 't', 'race_guess': 'b', 'gender_guess': 'm', 'quality': '3', 'quality_eyes': '3', 'quality_mouth': '3', 'quality_ears': '3', 'quality_hair': '3', 'quality_neck': '3', 'facial_hair': '1.0', 'notes': None, 'race_common': 'black', 'gender_common': 'man'}",,,,,,,,,,,,,,,,,,,,,,,,,,,,,,,,,,,,,,,,,,,,,,626384f0f847f13af3ed5e69,62635315c2c7645fef78b5e5,5c638b779e01830001f7127e
6620,626385f906b19921fe99ca78,Chrome,1.0,main_task,0.0,2.0,chris,"4/22/2022, 9:52:14 PM",pgj4xsph70gx0zg8mvfp,0.0-94.0,pilot_prolific_kitchen_sink,37,woman,141,1.0,white,50R,U,1975.0,"['../stimuli/version1_gray_lm/id007_00C_C.png', '../stimuli/version1_gray_lm/id141_50R_U.png', '../stimuli/version1_gray_lm/id007_50L_D.png']",258545.0,0.0,99.0,46.0,encoding,woman,007,"[0, 2]",white,"['50L', '00C']","['D', 'C']",,"{'muct_id': '77', 'lighting': 's', 'race_guess': 'w', 'gender_guess': 'w', 'quality': '3', 'quality_eyes': '3', 'quality_mouth': '3', 'quality_ears': '3', 'quality_hair': '3', 'quality_neck': '3', 'facial_hair': '0.0', 'notes': None, 'race_common': 'white', 'gender_common': 'woman'}","{'muct_id': '7', 'lighting': 's', 'race_guess': 'u', 'gender_guess': 'w', 'quality': '3', 'quality_eyes': '3', 'quality_mouth': '3', 'quality_ears': '3', 'quality_hair': '3', 'quality_neck': '3', 'facial_hair': '0.0', 'notes': None, 'race_common': 'white', 'gender_common': 'woman'}",,,,,,,,,,,,,,,,,,,,,,,,,,,,,,,,,,,,,,,,,,,,,,626384f0f847f13af3ed5e69,62635315c2c7645fef78b5e5,5c638b779e01830001f7127e
6621,626385f906b19921fe99ca79,Chrome,1.0,main_task,1.0,1.0,chris,"4/22/2022, 11:52:13 PM",ykxmwdgr5aph3d056so9,0.0-6.0,pilot_prolific_kitchen_sink,37,woman,103,0.0,black,25R,U,1548.0,"['../stimuli/version1_gray_lm/id103_25R_U.png', '../stimuli/version1_gray_lm/id140_25L_C.png', '../stimuli/version1_gray_lm/id140_00C_D.png']",68452.0,0.0,11.0,2.0,encoding,woman,140,"[1, 2]",black,"['25L', '00C']","['C', 'D']",,"{'muct_id': '285', 'lighting': 'v', 'race_guess': 'b', 'gender_guess': 'w', 'quality': '3', 'quality_eyes': '3', 'quality_mouth': '3', 'quality_ears': '3', 'quality_hair': '3', 'quality_neck': '3', 'facial_hair': '0.0', 'notes': 'earrings', 'race_common': 'black', 'gender_common': 'woman'}","{'muct_id': '624', 'lighting': 'y', 'race_guess': 'b', 'gender_guess': 'w', 'quality': '3', 'quality_eyes': '3', 'quality_mouth': '3', 'quality_ears': '3', 'quality_hair': '3', 'quality_neck': '3', 'facial_hair': '0.0', 'notes': 'headband, earring', 'race_common': 'black', 'gender_common': 'woman'}",,,,,,,,,,,,,,,,,,,,,,,,,,,,,,,,,,,,,,,,,,,,,,626385a97ae850bd4eb8a884,62635315c2c7645fef78b5e6,6138ab48f1aefea4a62b8b9e
6622,626385f906b19921fe99ca7a,Chrome,1.0,main_task,1.0,1.0,chris,"4/23/2022, 12:52:08 AM",s73rlerzmgod55zwnd6f,0.0-40.0,pilot_prolific_kitchen_sink,37,man,121,0.0,black,00C,C,3572.0,"['../stimuli/version1_gray_lm/id121_00C_C.png', '../stimuli/version1_gray_lm/id086_50R_D.png', '../stimuli/version1_gray_lm/id086_25L_U.png']",155734.0,0.0,45.0,19.0,encoding,man,086,"[1, 2]",black,"['50R', '25L']","['D', 'U']",,"{'muct_id': '423', 'lighting': 'w', 'race_guess': 'b', 'gender_guess': 'm', 'quality': '3', 'quality_eyes': '3', 'quality_mouth': '3', 'quality_ears': '3', 'quality_hair': '3', 'quality_neck': '3', 'facial_hair': '1.0', 'notes': None, 'race_common': 'black', 'gender_common': 'man'}","{'muct_id': '250', 'lighting': 't', 'race_guess': 'b', 'gender_guess': 'm', 'quality': '3', 'quality_eyes': '3', 'quality_mouth': '3', 'quality_ears': '3', 'quality_hair': '3', 'quality_neck': '3', 'facial_hair': '1.0', 'notes': None, 'race_common': 'black', 'gender_common': 'man'}",,,,,,,,,,,,,,,,,,,,,,,,,,,,,,,,,,,,,,,,,,,,,,6263853a96e2fa7b4b550c45,62635315c2c7645fef78b5e5,614f775b41afb9276d7018a5
6623,626385fc06b19921fe99ca7b,Chrome,1.0,main_task,1.0,1.0,chris,"4/22/2022, 9:52:16 PM",pgj4xsph70gx0zg8mvfp,0.0-96.0,pilot_prolific_kitchen_sink,37,woman,123,0.0,white,25R,C,1888.0,"['../stimuli/version1_gray_lm/id123_25R_C.png', '../stimuli/version1_gray_lm/id051_50L_D.png', '../stimuli/version1_gray_lm/id051_00C_U.png']",261034.0,0.0,101.0,47.0,encoding,woman,051,"[1, 2]",white,"['00C', '50L']","['U', 'D']",,"{'muct_id': '76', 'lighting': 'q', 'race_guess': 'w', 'gender_guess': 'w', 'quality': '2', 'quality_eyes': '2', 'quality_mouth': '3', 'quality_ears': '2', 'quality_hair': '2', 'quality_neck': '3', 'facial_hair': '0.0', 'notes': 'hair', 'race_common': 'white', 'gender_common': 'woman'}","{'muct_id': '74', 'lighting': 'q', 'race_guess': 'w', 'gender_guess': 'w', 'quality': '3', 'quality_eyes': '3', 'quality_mouth': '3', 'quality_ears': '3', 'quality_hair': '3', 'quality_neck': '3', 'facial_hair': '0.0', 'notes': None, 'race_common': 'white', 'gender_common': 'woman'}",,,,,,,,,,,,,,,,,,,,,,,,,,,,,,,,,,,,,,,,,,,,,,626384f0f847f13af3ed5e69,62635315c2c7645fef78b5e5,5c638b779e01830001f7127e
6624,626385fc06b19921fe99ca7c,Chrome,2.0,main_task,0.0,1.0,chris,"4/22/2022, 11:52:16 PM",ykxmwdgr5aph3d056so9,0.0-8.0,pilot_prolific_kitchen_sink,39,woman,101,0.0,white,25L,D,1139.0,"['../stimuli/version1_gray_lm/id101_25L_D.png', '../stimuli/version1_gray_lm/id088_50R_U.png', '../stimuli/version1_gray_lm/id088_00C_C.png']",71163.0,0.0,13.0,3.0,encoding,woman,088,"[1, 2]",white,"['50R', '00C']","['U', 'C']",,"{'muct_id': '281', 'lighting': 't', 'race_guess': 'w', 'gender_guess': 'w', 'quality': '3', 'quality_eyes': '3', 'quality_mouth': '3', 'quality_ears': '3', 'quality_hair': '3', 'quality_neck': '3', 'facial_hair': '0.0', 'notes': None, 'race_common': 'white', 'gender_common': 'woman'}","{'muct_id': '252', 'lighting': 't', 'race_guess': 'w', 'gender_guess': 'w', 'quality': '3', 'quality_eyes': '3', 'quality_mouth': '3', 'quality_ears': '3', 'quality_hair': '3', 'quality_neck': '3', 'facial_hair': '0.0', 'notes': 'hair', 'race_common': 'white', 'gender_common': 'woman'}",,,,,,,,,,,,,,,,,,,,,,,,,,,,,,,,,,,,,,,,,,,,,,626385a97ae850bd4eb8a884,62635315c2c7645fef78b5e6,6138ab48f1aefea4a62b8b9e
6625,626385fd06b19921fe99ca7d,Chrome,2.0,main_task,1.0,2.0,chris,"4/23/2022, 12:52:12 AM",s73rlerzmgod55zwnd6f,0.0-42.0,pilot_prolific_kitchen_sink,39,woman,120,1.0,black,25L,C,2828.0,"['../stimuli/version1_gray_lm/id059_25R_D.png', '../stimuli/version1_gray_lm/id120_25L_C.png', '../stimuli/version1_gray_lm/id059_00C_U.png']",159472.0,0.0,47.0,20.0,encoding,woman,059,"[0, 2]",black,"['25R', '00C']","['D', 'U']",,"{'muct_id': '421', 'lighting': 'x', 'race_guess': 'b', 'gender_guess': 'w', 'quality': '3', 'quality_eyes': '3', 'quality_mouth': '3', 'quality_ears': '3', 'quality_hair': '3', 'quality_neck': '3', 'facial_hair': '0.0', 'notes': None, 'race_common': 'black', 'gender_common': 'woman'}","{'muct_id': '86', 'lighting': 'q', 'race_guess': 'b', 'gender_guess': 'w', 'quality': '3', 'quality_eyes': '3', 'quality_mouth': '3', 'quality_ears': '3', 'quality_hair': '3', 'quality_neck': '3', 'facial_hair': '0.0', 'notes': 'earrings', 'race_common': 'black', 'gender_common': 'woman'}",,,,,,,,,,,,,,,,,,,,,,,,,,,,,,,,,,,,,,,,,,,,,,6263853a96e2fa7b4b550c45,62635315c2c7645fef78b5e5,614f775b41afb9276d7018a5
6626,626385fe06b19921fe99ca7e,Chrome,1.0,main_task,1.0,1.0,chris,"4/22/2022, 11:52:19 PM",ykxmwdgr5aph3d056so9,0.0-10.0,pilot_prolific_kitchen_sink,37,man,100,0.0,white,25L,D,1819.0,"['../stimuli/version1_gray_lm/id100_25L_D.png', '../stimuli/version1_gray_lm/id043_50R_U.png', '../stimuli/version1_gray_lm/id043_00C_C.png']",73703.0,0.0,15.0,4.0,encoding,man,043,"[1, 2]",white,"['50R', '00C']","['U', 'C']",,"{'muct_id': '280', 'lighting': 'u', 'race_guess': 'w', 'gender_guess': 'm', 'quality': '3', 'quality_eyes': '3', 'quality_mouth': '3', 'quality_ears': '3', 'quality_hair': '3', 'quality_neck': '3', 'facial_hair': '0.0', 'notes': None, 'race_common': 'white', 'gender_common': 'man'}","{'muct_id': '58', 'lighting': 'q', 'race_guess': 'w', 'gender_guess': 'm', 'quality': '3', 'quality_eyes': '3', 'quality_mouth': '3', 'quality_ears': '3', 'quality_hair': '3', 'quality_neck': '3', 'facial_hair': '0.0', 'notes': None, 'race_common': 'white', 'gender_common': 'man'}",,,,,,,,,,,,,,,,,,,,,,,,,,,,,,,,,,,,,,,,,,,,,,626385a97ae850bd4eb8a884,62635315c2c7645fef78b5e6,6138ab48f1aefea4a62b8b9e
6627,6263860006b19921fe99ca7f,Chrome,2.0,main_task,0.0,3.0,chris,"4/22/2022, 9:52:21 PM",pgj4xsph70gx0zg8mvfp,0.0-98.0,pilot_prolific_kitchen_sink,39,man,121,2.0,black,00C,U,2164.0,"['../stimuli/version1_gray_lm/id040_50L_C.png', '../stimuli/version1_gray_lm/id040_25R_D.png', '../stimuli/version1_gray_lm/id121_00C_U.png']",265461.0,0.0,103.0,48.0,encoding,man,040,"[0, 1]",black,"['25R', '50L']","['D', 'C']",,"{'muct_id': '423', 'lighting': 'w', 'race_guess': 'b', 'gender_guess': 'm', 'quality': '3', 'quality_eyes': '3', 'quality_mouth': '3', 'quality_ears': '3', 'quality_hair': '3', 'quality_neck': '3', 'facial_hair': '1.0', 'notes': None, 'race_common': 'black', 'gender_common': 'man'}","{'muct_id': '55', 'lighting': 'r', 'race_guess': 'b', 'gender_guess': 'm', 'quality': '3', 'quality_eyes': '3', 'quality_mouth': '3', 'quality_ears': '3', 'quality_hair': '3', 'quality_neck': '3', 'facial_hair': '3.0', 'notes': 'beard', 'race_common': 'black', 'gender_common': 'man'}",,,,,,,,,,,,,,,,,,,,,,,,,,,,,,,,,,,,,,,,,,,,,,626384f0f847f13af3ed5e69,62635315c2c7645fef78b5e5,5c638b779e01830001f7127e
6628,6263860206b19921fe99ca80,Chrome,2.0,main_task,1.0,2.0,chris,"4/23/2022, 12:52:17 AM",s73rlerzmgod55zwnd6f,0.0-44.0,pilot_prolific_kitchen_sink,39,man,124,1.0,black,50R,D,3810.0,"['../stimuli/version1_gray_lm/id030_00C_C.png', '../stimuli/version1_gray_lm/id124_50R_D.png', '../stimuli/version1_gray_lm/id030_50L_U.png']",164213.0,0.0,49.0,21.0,encoding,man,030,"[0, 2]",black,"['00C', '50L']","['C', 'U']",,"{'muct_id': '431', 'lighting': 'x', 'race_guess': 'b', 'gender_guess': 'u', 'quality': '3', 'quality_eyes': '3', 'quality_mouth': '3', 'quality_ears': '3', 'quality_hair': '3', 'quality_neck': '3', 'facial_hair': '0.0', 'notes': 'mouth', 'race_common': 'black', 'gender_common': 'man'}","{'muct_id': '41', 'lighting': 'r', 'race_guess': 'b', 'gender_guess': 'm', 'quality': '3', 'quality_eyes': '3', 'quality_mouth': '3', 'quality_ears': '3', 'quality_hair': '3', 'quality_neck': '3', 'facial_hair': '0.0', 'notes': None, 'race_common': 'black', 'gender_common': 'man'}",,,,,,,,,,,,,,,,,,,,,,,,,,,,,,,,,,,,,,,,,,,,,,6263853a96e2fa7b4b550c45,62635315c2c7645fef78b5e5,614f775b41afb9276d7018a5
6629,6263860206b19921fe99ca81,Chrome,2.0,main_task,1.0,2.0,chris,"4/22/2022, 9:52:23 PM",pgj4xsph70gx0zg8mvfp,0.0-100.0,pilot_prolific_kitchen_sink,39,man,113,1.0,black,50R,D,1616.0,"['../stimuli/version1_gray_lm/id090_25L_C.png', '../stimuli/version1_gray_lm/id113_50R_D.png', '../stimuli/version1_gray_lm/id090_00C_U.png']",267481.0,0.0,105.0,49.0,encoding,man,090,"[0, 2]",black,"['00C', '25L']","['U', 'C']",,"{'muct_id': '407', 'lighting': 'x', 'race_guess': 'u', 'gender_guess': 'm', 'quality': '3', 'quality_eyes': '3', 'quality_mouth': '3', 'quality_ears': '3', 'quality_hair': '3', 'quality_neck': '3', 'facial_hair': '3.0', 'notes': 'beard', 'race_common': 'black', 'gender_common': 'man'}","{'muct_id': '259', 'lighting': 'v', 'race_guess': 'b', 'gender_guess': 'm', 'quality': '3', 'quality_eyes': '3', 'quality_mouth': '3', 'quality_ears': '3', 'quality_hair': '3', 'quality_neck': '3', 'facial_hair': '2.0', 'notes': None, 'race_common': 'black', 'gender_common': 'man'}",,,,,,,,,,,,,,,,,,,,,,,,,,,,,,,,,,,,,,,,,,,,,,626384f0f847f13af3ed5e69,62635315c2c7645fef78b5e5,5c638b779e01830001f7127e
6630,6263860306b19921fe99ca82,Chrome,3.0,main_task,1.0,3.0,chris,"4/22/2022, 11:52:23 PM",ykxmwdgr5aph3d056so9,0.0-12.0,pilot_prolific_kitchen_sink,40,woman,102,2.0,white,00C,U,3400.0,"['../stimuli/version1_gray_lm/id031_25R_D.png', '../stimuli/version1_gray_lm/id031_50L_C.png', '../stimuli/version1_gray_lm/id102_00C_U.png']",77813.0,0.0,17.0,5.0,encoding,woman,031,"[0, 1]",white,"['25R', '50L']","['D', 'C']",,"{'muct_id': '283', 'lighting': 't', 'race_guess': 'i', 'gender_guess': 'w', 'quality': '3', 'quality_eyes': '3', 'quality_mouth': '3', 'quality_ears': '3', 'quality_hair': '3', 'quality_neck': '3', 'facial_hair': '0.0', 'notes': 'pottu', 'race_common': 'white', 'gender_common': 'woman'}","{'muct_id': '42', 'lighting': 'q', 'race_guess': 'u', 'gender_guess': 'w', 'quality': '2', 'quality_eyes': '3', 'quality_mouth': '3', 'quality_ears': '2', 'quality_hair': '3', 'quality_neck': '3', 'facial_hair': '0.0', 'notes': 'mouth', 'race_common': 'white', 'gender_common': 'woman'}",,,,,,,,,,,,,,,,,,,,,,,,,,,,,,,,,,,,,,,,,,,,,,626385a97ae850bd4eb8a884,62635315c2c7645fef78b5e6,6138ab48f1aefea4a62b8b9e
6631,6263860406b19921fe99ca83,Chrome,2.0,main_task,1.0,2.0,chris,"4/22/2022, 9:52:25 PM",pgj4xsph70gx0zg8mvfp,0.0-102.0,pilot_prolific_kitchen_sink,39,woman,152,1.0,white,00C,C,1407.0,"['../stimuli/version1_gray_lm/id029_50R_U.png', '../stimuli/version1_gray_lm/id152_00C_C.png', '../stimuli/version1_gray_lm/id029_50L_D.png']",269387.0,0.0,107.0,50.0,encoding,woman,029,"[0, 2]",white,"['50L', '50R']","['D', 'U']",,"{'muct_id': '446', 'lighting': 'w', 'race_guess': 'w', 'gender_guess': 'w', 'quality': '3', 'quality_eyes': '3', 'quality_mouth': '3', 'quality_ears': '3', 'quality_hair': '3', 'quality_neck': '3', 'facial_hair': '0.0', 'notes': None, 'race_common': 'white', 'gender_common': 'woman'}","{'muct_id': '39', 'lighting': 'r', 'race_guess': 'w', 'gender_guess': 'w', 'quality': '3', 'quality_eyes': '3', 'quality_mouth': '3', 'quality_ears': '3', 'quality_hair': '3', 'quality_neck': '3', 'facial_hair': '0.0', 'notes': 'earrings hair', 'race_common': 'white', 'gender_common': 'woman'}",,,,,,,,,,,,,,,,,,,,,,,,,,,,,,,,,,,,,,,,,,,,,,626384f0f847f13af3ed5e69,62635315c2c7645fef78b5e5,5c638b779e01830001f7127e
6632,6263860406b19921fe99ca84,Chrome,3.0,main_task,1.0,3.0,chris,"4/23/2022, 12:52:19 AM",s73rlerzmgod55zwnd6f,0.0-46.0,pilot_prolific_kitchen_sink,40,woman,141,2.0,white,50R,U,1605.0,"['../stimuli/version1_gray_lm/id013_00C_C.png', '../stimuli/version1_gray_lm/id013_25L_D.png', '../stimuli/version1_gray_lm/id141_50R_U.png']",166794.0,0.0,51.0,22.0,encoding,woman,013,"[0, 1]",white,"['00C', '25L']","['C', 'D']",,"{'muct_id': '77', 'lighting': 's', 'race_guess': 'w', 'gender_guess': 'w', 'quality': '3', 'quality_eyes': '3', 'quality_mouth': '3', 'quality_ears': '3', 'quality_hair': '3', 'quality_neck': '3', 'facial_hair': '0.0', 'notes': None, 'race_common': 'white', 'gender_common': 'woman'}","{'muct_id': '14', 'lighting': 'q', 'race_guess': 'w', 'gender_guess': 'w', 'quality': '3', 'quality_eyes': '3', 'quality_mouth': '3', 'quality_ears': '3', 'quality_hair': '3', 'quality_neck': '3', 'facial_hair': '0.0', 'notes': None, 'race_common': 'white', 'gender_common': 'woman'}",,,,,,,,,,,,,,,,,,,,,,,,,,,,,,,,,,,,,,,,,,,,,,6263853a96e2fa7b4b550c45,62635315c2c7645fef78b5e5,614f775b41afb9276d7018a5
6633,6263860506b19921fe99ca85,Chrome,2.0,main_task,1.0,2.0,chris,"4/22/2022, 11:52:25 PM",ykxmwdgr5aph3d056so9,0.0-14.0,pilot_prolific_kitchen_sink,39,man,104,1.0,white,00C,U,1728.0,"['../stimuli/version1_gray_lm/id052_25R_C.png', '../stimuli/version1_gray_lm/id104_00C_U.png', '../stimuli/version1_gray_lm/id052_25L_D.png']",80253.0,0.0,19.0,6.0,encoding,man,052,"[0, 2]",white,"['25R', '25L']","['C', 'D']",,"{'muct_id': '287', 'lighting': 't', 'race_guess': 'w', 'gender_guess': 'm', 'quality': '3', 'quality_eyes': '3', 'quality_mouth': '3', 'quality_ears': '3', 'quality_hair': '3', 'quality_neck': '3', 'facial_hair': '2.0', 'notes': None, 'race_common': 'white', 'gender_common': 'man'}","{'muct_id': '75', 'lighting': 'q', 'race_guess': 'w', 'gender_guess': 'm', 'quality': '3', 'quality_eyes': '3', 'quality_mouth': '3', 'quality_ears': '3', 'quality_hair': '3', 'quality_neck': '3', 'facial_hair': '4.0', 'notes': 'beard', 'race_common': 'white', 'gender_common': 'man'}",,,,,,,,,,,,,,,,,,,,,,,,,,,,,,,,,,,,,,,,,,,,,,626385a97ae850bd4eb8a884,62635315c2c7645fef78b5e6,6138ab48f1aefea4a62b8b9e
6634,6263860706b19921fe99ca86,Chrome,2.0,main_task,1.0,2.0,chris,"4/23/2022, 12:52:22 AM",s73rlerzmgod55zwnd6f,0.0-48.0,pilot_prolific_kitchen_sink,39,man,122,1.0,black,25R,C,2192.0,"['../stimuli/version1_gray_lm/id021_00C_D.png', '../stimuli/version1_gray_lm/id122_25R_C.png', '../stimuli/version1_gray_lm/id021_50L_U.png']",169880.0,0.0,53.0,23.0,encoding,man,021,"[0, 2]",black,"['00C', '50L']","['D', 'U']",,"{'muct_id': '425', 'lighting': 'x', 'race_guess': 'b', 'gender_guess': 'm', 'quality': '3', 'quality_eyes': '3', 'quality_mouth': '3', 'quality_ears': '3', 'quality_hair': '3', 'quality_neck': '3', 'facial_hair': '2.0', 'notes': None, 'race_common': 'black', 'gender_common': 'man'}","{'muct_id': '25', 'lighting': 'r', 'race_guess': 'b', 'gender_guess': 'm', 'quality': '3', 'quality_eyes': '3', 'quality_mouth': '3', 'quality_ears': '3', 'quality_hair': '3', 'quality_neck': '3', 'facial_hair': '2.0', 'notes': None, 'race_common': 'black', 'gender_common': 'man'}",,,,,,,,,,,,,,,,,,,,,,,,,,,,,,,,,,,,,,,,,,,,,,6263853a96e2fa7b4b550c45,62635315c2c7645fef78b5e5,614f775b41afb9276d7018a5
6635,6263860806b19921fe99ca87,Chrome,3.0,main_task,0.0,1.0,chris,"4/22/2022, 9:52:29 PM",pgj4xsph70gx0zg8mvfp,0.0-104.0,pilot_prolific_kitchen_sink,40,man,116,0.0,white,50R,U,3315.0,"['../stimuli/version1_gray_lm/id116_50R_U.png', '../stimuli/version1_gray_lm/id043_25L_D.png', '../stimuli/version1_gray_lm/id043_00C_C.png']",273355.0,0.0,109.0,51.0,encoding,man,043,"[1, 2]",white,"['00C', '25L']","['C', 'D']",,"{'muct_id': '414', 'lighting': 'w', 'race_guess': 'w', 'gender_guess': 'm', 'quality': '3', 'quality_eyes': '3', 'quality_mouth': '3', 'quality_ears': '3', 'quality_hair': '3', 'quality_neck': '3', 'facial_hair': '0.0', 'notes': None, 'race_common': 'white', 'gender_common': 'man'}","{'muct_id': '58', 'lighting': 'q', 'race_guess': 'w', 'gender_guess': 'm', 'quality': '3', 'quality_eyes': '3', 'quality_mouth': '3', 'quality_ears': '3', 'quality_hair': '3', 'quality_neck': '3', 'facial_hair': '0.0', 'notes': None, 'race_common': 'white', 'gender_common': 'man'}",,,,,,,,,,,,,,,,,,,,,,,,,,,,,,,,,,,,,,,,,,,,,,626384f0f847f13af3ed5e69,62635315c2c7645fef78b5e5,5c638b779e01830001f7127e
6636,6263860906b19921fe99ca88,Chrome,1.0,main_task,1.0,1.0,chris,"4/22/2022, 11:52:30 PM",ykxmwdgr5aph3d056so9,0.0-16.0,pilot_prolific_kitchen_sink,37,man,112,0.0,black,25R,D,3899.0,"['../stimuli/version1_gray_lm/id112_25R_D.png', '../stimuli/version1_gray_lm/id090_50L_C.png', '../stimuli/version1_gray_lm/id090_00C_U.png']",84783.0,0.0,21.0,7.0,encoding,man,090,"[1, 2]",black,"['50L', '00C']","['C', 'U']",,"{'muct_id': '406', 'lighting': 'w', 'race_guess': 'b', 'gender_guess': 'm', 'quality': '3', 'quality_eyes': '3', 'quality_mouth': '3', 'quality_ears': '3', 'quality_hair': '3', 'quality_neck': '3', 'facial_hair': '1.0', 'notes': None, 'race_common': 'black', 'gender_common': 'man'}","{'muct_id': '259', 'lighting': 'v', 'race_guess': 'b', 'gender_guess': 'm', 'quality': '3', 'quality_eyes': '3', 'quality_mouth': '3', 'quality_ears': '3', 'quality_hair': '3', 'quality_neck': '3', 'facial_hair': '2.0', 'notes': None, 'race_common': 'black', 'gender_common': 'man'}",,,,,,,,,,,,,,,,,,,,,,,,,,,,,,,,,,,,,,,,,,,,,,626385a97ae850bd4eb8a884,62635315c2c7645fef78b5e6,6138ab48f1aefea4a62b8b9e
6637,6263860b06b19921fe99ca89,Chrome,3.0,main_task,1.0,3.0,chris,"4/22/2022, 9:52:31 PM",pgj4xsph70gx0zg8mvfp,0.0-106.0,pilot_prolific_kitchen_sink,40,man,137,2.0,black,25L,C,2163.0,"['../stimuli/version1_gray_lm/id097_00C_D.png', '../stimuli/version1_gray_lm/id097_25R_U.png', '../stimuli/version1_gray_lm/id137_25L_C.png']",276082.0,0.0,111.0,52.0,encoding,man,097,"[0, 1]",black,"['00C', '25R']","['D', 'U']",,"{'muct_id': '617', 'lighting': 'y', 'race_guess': 'b', 'gender_guess': 'w', 'quality': '3', 'quality_eyes': '3', 'quality_mouth': '3', 'quality_ears': '3', 'quality_hair': '3', 'quality_neck': '3', 'facial_hair': '0.0', 'notes': 'mouth', 'race_common': 'black', 'gender_common': 'man'}","{'muct_id': '269', 'lighting': 'u', 'race_guess': 'b', 'gender_guess': 'm', 'quality': '3', 'quality_eyes': '3', 'quality_mouth': '3', 'quality_ears': '3', 'quality_hair': '3', 'quality_neck': '3', 'facial_hair': '0.0', 'notes': None, 'race_common': 'black', 'gender_common': 'man'}",,,,,,,,,,,,,,,,,,,,,,,,,,,,,,,,,,,,,,,,,,,,,,626384f0f847f13af3ed5e69,62635315c2c7645fef78b5e5,5c638b779e01830001f7127e
6638,6263860c06b19921fe99ca8a,Chrome,2.0,main_task,0.0,1.0,chris,"4/23/2022, 12:52:27 AM",s73rlerzmgod55zwnd6f,0.0-50.0,pilot_prolific_kitchen_sink,39,man,143,0.0,white,00C,C,3567.0,"['../stimuli/version1_gray_lm/id143_00C_C.png', '../stimuli/version1_gray_lm/id089_50L_U.png', '../stimuli/version1_gray_lm/id089_50R_D.png']",174287.0,0.0,55.0,24.0,encoding,man,089,"[1, 2]",white,"['50L', '50R']","['U', 'D']",,"{'muct_id': '90', 'lighting': 'q', 'race_guess': 'u', 'gender_guess': 'm', 'quality': '2', 'quality_eyes': '3', 'quality_mouth': '3', 'quality_ears': '2', 'quality_hair': '3', 'quality_neck': '3', 'facial_hair': '4.0', 'notes': 'beard', 'race_common': 'white', 'gender_common': 'man'}","{'muct_id': '255', 'lighting': 't', 'race_guess': 'w', 'gender_guess': 'm', 'quality': '3', 'quality_eyes': '3', 'quality_mouth': '3', 'quality_ears': '3', 'quality_hair': '3', 'quality_neck': '3', 'facial_hair': '2.0', 'notes': None, 'race_common': 'white', 'gender_common': 'man'}",,,,,,,,,,,,,,,,,,,,,,,,,,,,,,,,,,,,,,,,,,,,,,6263853a96e2fa7b4b550c45,62635315c2c7645fef78b5e5,614f775b41afb9276d7018a5
6639,6263860d06b19921fe99ca8b,Chrome,3.0,main_task,1.0,3.0,chris,"4/22/2022, 11:52:33 PM",ykxmwdgr5aph3d056so9,0.0-18.0,pilot_prolific_kitchen_sink,40,woman,111,2.0,black,50L,C,3131.0,"['../stimuli/version1_gray_lm/id060_50R_U.png', '../stimuli/version1_gray_lm/id060_00C_D.png', '../stimuli/version1_gray_lm/id111_50L_C.png']",88444.0,0.0,23.0,8.0,encoding,woman,060,"[0, 1]",black,"['50R', '00C']","['U', 'D']",,"{'muct_id': '405', 'lighting': 'w', 'race_guess': 'b', 'gender_guess': 'w', 'quality': '3', 'quality_eyes': '3', 'quality_mouth': '3', 'quality_ears': '3', 'quality_hair': '3', 'quality_neck': '3', 'facial_hair': '0.0', 'notes': 'hair earrings', 'race_common': 'black', 'gender_common': 'woman'}","{'muct_id': '88', 'lighting': 'q', 'race_guess': 'b', 'gender_guess': 'w', 'quality': '3', 'quality_eyes': '3', 'quality_mouth': '3', 'quality_ears': '3', 'quality_hair': '3', 'quality_neck': '3', 'facial_hair': '0.0', 'notes': 'earrings', 'race_common': 'black', 'gender_common': 'woman'}",,,,,,,,,,,,,,,,,,,,,,,,,,,,,,,,,,,,,,,,,,,,,,626385a97ae850bd4eb8a884,62635315c2c7645fef78b5e6,6138ab48f1aefea4a62b8b9e
