,_id,browser,choice,collection,correct,correct_response,database,datetime,experiment_id,internal_node_id,iteration,key_press,oddity_gender,oddity_identity,oddity_index,oddity_race,oddity_tiltLR,oddity_tiltUD,rt,stimulus,time_elapsed,timed_out,trial_index,trial_number,trial_type,typicals_gender,typicals_identity,typicals_indices,typicals_race,typicals_tiltsLR,typicals_tiltsUD,practice_threshold_met,oddity_meta,typicals_meta,button_pressed,last_trial_type,prediction,choice_category,choice_object,oddity_category,oddity_name,oddity_type,stimulus_response_map,typical_category,typical_indices,typical_name,variation_level,encoding_pair,encoding_type,gender,identity,meta,original_index,original_tiltLR,original_tiltUD,race,response,retrieval_condition,tiltLR,tiltUD,tilt_change,tilt_difference,original_tilt,encoding_accuracy,encoding_avg_rt,encoding_n_trials,experimental_duration,filler_accuracy,filler_avg_rt,filler_n_trials,params,retrieval_accuracy,retrieval_avg_rt,retrieval_n_trials,total_bonus,total_payment,age,gender_other,latinx,session_id,study_id,subject_id,meta_new,meta_old,new_gender,new_identity,new_index,new_race,new_tiltLR,new_tiltUD,old_encoding_pair,old_encoding_type,old_gender,old_identity,old_index,old_original_index,old_original_tiltLR,old_original_tiltUD,old_race,old_tiltLR,old_tiltUD,stimuli
8211,6266e4f506b19921fe99d0af,Chrome,1.0,main_task,1.0,1.0,chris,"4/25/2022, 11:14:13 AM",5a1s60o6zgtxfmr92myb,0.0-2.0-0.0,pilot_prolific_20_trials,37,woman,106,0.0,latinx,00C,D,3229.0,"['../stimuli/version1_gray_lm/id106_00C_D.png', '../stimuli/version1_gray_lm/id107_50R_C.png', '../stimuli/version1_gray_lm/id107_50L_U.png']",47312.0,0.0,2.0,1.0,encoding_practice,man,107,"[1, 2]",latinx,"['50R', '50L']","['C', 'U']",,,,,,,,,,,,,,,,,,,,,,,,,,,,,,,,,,,,,,,,,,,,,,,,,6266e4b905dee01448e38f74,6266e20a583caa8581feb913,5dda51f040460e9a0f5f6a70,,,,,,,,,,,,,,,,,,,,
8212,6266e4f906b19921fe99d0b0,Chrome,1.0,main_task,1.0,1.0,chris,"4/25/2022, 11:14:17 AM",5a1s60o6zgtxfmr92myb,0.0-2.1-0.1,pilot_prolific_20_trials,37,woman,106,0.0,latinx,00C,D,1630.0,"['../stimuli/version1_gray_lm/id106_00C_D.png', '../stimuli/version1_gray_lm/id108_50L_U.png', '../stimuli/version1_gray_lm/id108_50R_C.png']",51270.0,0.0,4.0,2.0,encoding_practice,woman,108,"[1, 2]",latinx,"['50L', '50R']","['U', 'C']",,,,,,,,,,,,,,,,,,,,,,,,,,,,,,,,,,,,,,,,,,,,,,,,,6266e4b905dee01448e38f74,6266e20a583caa8581feb913,5dda51f040460e9a0f5f6a70,,,,,,,,,,,,,,,,,,,,
8213,6266e4fc06b19921fe99d0b1,Chrome,2.0,main_task,0.0,3.0,chris,"4/25/2022, 11:14:19 AM",5a1s60o6zgtxfmr92myb,0.0-2.2-0.2,pilot_prolific_20_trials,39,man,107,2.0,latinx,00C,U,1881.0,"['../stimuli/version1_gray_lm/id106_50R_C.png', '../stimuli/version1_gray_lm/id106_25L_D.png', '../stimuli/version1_gray_lm/id107_00C_U.png']",54093.0,0.0,6.0,3.0,encoding_practice,woman,106,"[0, 1]",latinx,"['50R', '25L']","['C', 'D']",,,,,,,,,,,,,,,,,,,,,,,,,,,,,,,,,,,,,,,,,,,,,,,,,6266e4b905dee01448e38f74,6266e20a583caa8581feb913,5dda51f040460e9a0f5f6a70,,,,,,,,,,,,,,,,,,,,
8214,6266e4fd06b19921fe99d0b2,Chrome,1.0,main_task,1.0,1.0,chris,"4/25/2022, 11:14:21 AM",5a1s60o6zgtxfmr92myb,0.0-2.3-0.3,pilot_prolific_20_trials,37,woman,106,0.0,latinx,00C,C,889.0,"['../stimuli/version1_gray_lm/id106_00C_C.png', '../stimuli/version1_gray_lm/id107_25R_D.png', '../stimuli/version1_gray_lm/id107_50L_U.png']",55959.0,0.0,8.0,4.0,encoding_practice,man,107,"[1, 2]",latinx,"['25R', '50L']","['D', 'U']",1.0,,,,,,,,,,,,,,,,,,,,,,,,,,,,,,,,,,,,,,,,,,,,,,,,6266e4b905dee01448e38f74,6266e20a583caa8581feb913,5dda51f040460e9a0f5f6a70,,,,,,,,,,,,,,,,,,,,
8215,6266e50706b19921fe99d0b3,Chrome,2.0,main_task,1.0,2.0,chris,"4/25/2022, 11:14:31 AM",5a1s60o6zgtxfmr92myb,0.0-4.0,pilot_prolific_20_trials,39,man,105,1.0,black,00C,D,2688.0,"['../stimuli/version1_gray_lm/id040_50L_C.png', '../stimuli/version1_gray_lm/id105_00C_D.png', '../stimuli/version1_gray_lm/id040_25R_U.png']",65567.0,0.0,11.0,1.0,encoding,man,040,"[0, 2]",black,"['50L', '25R']","['C', 'U']",,"{'muct_id': '290', 'lighting': 't', 'race_guess': 'b', 'gender_guess': 'm', 'quality': '3', 'quality_eyes': '3', 'quality_mouth': '3', 'quality_ears': '3', 'quality_hair': '3', 'quality_neck': '3', 'facial_hair': '2.0', 'notes': None, 'race_common': 'black', 'gender_common': 'man'}","{'muct_id': '55', 'lighting': 'r', 'race_guess': 'b', 'gender_guess': 'm', 'quality': '3', 'quality_eyes': '3', 'quality_mouth': '3', 'quality_ears': '3', 'quality_hair': '3', 'quality_neck': '3', 'facial_hair': '3.0', 'notes': 'beard', 'race_common': 'black', 'gender_common': 'man'}",,,,,,,,,,,,,,,,,,,,,,,,,,,,,,,,,,,,,,,,,,,,,,6266e4b905dee01448e38f74,6266e20a583caa8581feb913,5dda51f040460e9a0f5f6a70,,,,,,,,,,,,,,,,,,,,
8216,6266e50a06b19921fe99d0b4,Chrome,3.0,main_task,1.0,3.0,chris,"4/25/2022, 11:14:34 AM",5a1s60o6zgtxfmr92myb,0.0-6.0,pilot_prolific_20_trials,40,woman,101,2.0,white,25R,U,1901.0,"['../stimuli/version1_gray_lm/id054_25L_D.png', '../stimuli/version1_gray_lm/id054_00C_C.png', '../stimuli/version1_gray_lm/id101_25R_U.png']",68481.0,0.0,13.0,2.0,encoding,woman,054,"[0, 1]",white,"['25L', '00C']","['D', 'C']",,"{'muct_id': '281', 'lighting': 't', 'race_guess': 'w', 'gender_guess': 'w', 'quality': '3', 'quality_eyes': '3', 'quality_mouth': '3', 'quality_ears': '3', 'quality_hair': '3', 'quality_neck': '3', 'facial_hair': '0.0', 'notes': None, 'race_common': 'white', 'gender_common': 'woman'}","{'muct_id': '80', 'lighting': 's', 'race_guess': 'b', 'gender_guess': 'w', 'quality': '3', 'quality_eyes': '3', 'quality_mouth': '3', 'quality_ears': '3', 'quality_hair': '3', 'quality_neck': '3', 'facial_hair': '0.0', 'notes': 'earrings', 'race_common': 'white', 'gender_common': 'woman'}",,,,,,,,,,,,,,,,,,,,,,,,,,,,,,,,,,,,,,,,,,,,,,6266e4b905dee01448e38f74,6266e20a583caa8581feb913,5dda51f040460e9a0f5f6a70,,,,,,,,,,,,,,,,,,,,
8217,6266e50f06b19921fe99d0b5,Chrome,2.0,main_task,1.0,2.0,chris,"4/25/2022, 11:14:38 AM",5a1s60o6zgtxfmr92myb,0.0-8.0,pilot_prolific_20_trials,39,woman,103,1.0,black,50L,C,3935.0,"['../stimuli/version1_gray_lm/id019_00C_U.png', '../stimuli/version1_gray_lm/id103_50L_C.png', '../stimuli/version1_gray_lm/id019_50R_D.png']",73073.0,0.0,15.0,3.0,encoding,woman,019,"[0, 2]",black,"['00C', '50R']","['U', 'D']",,"{'muct_id': '285', 'lighting': 'v', 'race_guess': 'b', 'gender_guess': 'w', 'quality': '3', 'quality_eyes': '3', 'quality_mouth': '3', 'quality_ears': '3', 'quality_hair': '3', 'quality_neck': '3', 'facial_hair': '0.0', 'notes': 'earrings', 'race_common': 'black', 'gender_common': 'woman'}","{'muct_id': '23', 'lighting': 'q', 'race_guess': 'b', 'gender_guess': 'u', 'quality': '3', 'quality_eyes': '3', 'quality_mouth': '3', 'quality_ears': '3', 'quality_hair': '3', 'quality_neck': '3', 'facial_hair': '0.0', 'notes': None, 'race_common': 'black', 'gender_common': 'woman'}",,,,,,,,,,,,,,,,,,,,,,,,,,,,,,,,,,,,,,,,,,,,,,6266e4b905dee01448e38f74,6266e20a583caa8581feb913,5dda51f040460e9a0f5f6a70,,,,,,,,,,,,,,,,,,,,
8218,6266e51106b19921fe99d0b6,Chrome,1.0,main_task,1.0,1.0,chris,"4/25/2022, 11:14:41 AM",5a1s60o6zgtxfmr92myb,0.0-10.0,pilot_prolific_20_trials,37,man,100,0.0,white,25L,C,2019.0,"['../stimuli/version1_gray_lm/id100_25L_C.png', '../stimuli/version1_gray_lm/id099_00C_U.png', '../stimuli/version1_gray_lm/id099_25R_D.png']",75972.0,0.0,17.0,4.0,encoding,man,099,"[1, 2]",white,"['00C', '25R']","['U', 'D']",,"{'muct_id': '280', 'lighting': 'u', 'race_guess': 'w', 'gender_guess': 'm', 'quality': '3', 'quality_eyes': '3', 'quality_mouth': '3', 'quality_ears': '3', 'quality_hair': '3', 'quality_neck': '3', 'facial_hair': '0.0', 'notes': None, 'race_common': 'white', 'gender_common': 'man'}","{'muct_id': '278', 'lighting': 't', 'race_guess': 'w', 'gender_guess': 'm', 'quality': '3', 'quality_eyes': '3', 'quality_mouth': '3', 'quality_ears': '3', 'quality_hair': '3', 'quality_neck': '3', 'facial_hair': '0.0', 'notes': None, 'race_common': 'white', 'gender_common': 'man'}",,,,,,,,,,,,,,,,,,,,,,,,,,,,,,,,,,,,,,,,,,,,,,6266e4b905dee01448e38f74,6266e20a583caa8581feb913,5dda51f040460e9a0f5f6a70,,,,,,,,,,,,,,,,,,,,
8219,6266e51506b19921fe99d0b7,Chrome,2.0,main_task,1.0,2.0,chris,"4/25/2022, 11:14:45 AM",5a1s60o6zgtxfmr92myb,0.0-12.0,pilot_prolific_20_trials,39,man,112,1.0,black,00C,C,3170.0,"['../stimuli/version1_gray_lm/id021_50R_U.png', '../stimuli/version1_gray_lm/id112_00C_C.png', '../stimuli/version1_gray_lm/id021_50L_D.png']",79710.0,0.0,19.0,5.0,encoding,man,021,"[0, 2]",black,"['50R', '50L']","['U', 'D']",,"{'muct_id': '406', 'lighting': 'w', 'race_guess': 'b', 'gender_guess': 'm', 'quality': '3', 'quality_eyes': '3', 'quality_mouth': '3', 'quality_ears': '3', 'quality_hair': '3', 'quality_neck': '3', 'facial_hair': '1.0', 'notes': None, 'race_common': 'black', 'gender_common': 'man'}","{'muct_id': '25', 'lighting': 'r', 'race_guess': 'b', 'gender_guess': 'm', 'quality': '3', 'quality_eyes': '3', 'quality_mouth': '3', 'quality_ears': '3', 'quality_hair': '3', 'quality_neck': '3', 'facial_hair': '2.0', 'notes': None, 'race_common': 'black', 'gender_common': 'man'}",,,,,,,,,,,,,,,,,,,,,,,,,,,,,,,,,,,,,,,,,,,,,,6266e4b905dee01448e38f74,6266e20a583caa8581feb913,5dda51f040460e9a0f5f6a70,,,,,,,,,,,,,,,,,,,,
8220,6266e51906b19921fe99d0b8,Chrome,2.0,main_task,0.0,1.0,chris,"4/25/2022, 11:14:49 AM",5a1s60o6zgtxfmr92myb,0.0-14.0,pilot_prolific_20_trials,39,woman,102,0.0,white,00C,D,3575.0,"['../stimuli/version1_gray_lm/id102_00C_D.png', '../stimuli/version1_gray_lm/id018_50R_U.png', '../stimuli/version1_gray_lm/id018_25L_C.png']",83901.0,0.0,21.0,6.0,encoding,woman,018,"[1, 2]",white,"['50R', '25L']","['U', 'C']",,"{'muct_id': '283', 'lighting': 't', 'race_guess': 'i', 'gender_guess': 'w', 'quality': '3', 'quality_eyes': '3', 'quality_mouth': '3', 'quality_ears': '3', 'quality_hair': '3', 'quality_neck': '3', 'facial_hair': '0.0', 'notes': 'pottu', 'race_common': 'white', 'gender_common': 'woman'}","{'muct_id': '21', 'lighting': 'q', 'race_guess': 'w', 'gender_guess': 'w', 'quality': '3', 'quality_eyes': '3', 'quality_mouth': '3', 'quality_ears': '3', 'quality_hair': '3', 'quality_neck': '3', 'facial_hair': '0.0', 'notes': None, 'race_common': 'white', 'gender_common': 'woman'}",,,,,,,,,,,,,,,,,,,,,,,,,,,,,,,,,,,,,,,,,,,,,,6266e4b905dee01448e38f74,6266e20a583caa8581feb913,5dda51f040460e9a0f5f6a70,,,,,,,,,,,,,,,,,,,,
8221,6266e51c06b19921fe99d0b9,Chrome,1.0,main_task,1.0,1.0,chris,"4/25/2022, 11:14:52 AM",5a1s60o6zgtxfmr92myb,0.0-16.0,pilot_prolific_20_trials,37,woman,111,0.0,black,50R,D,2304.0,"['../stimuli/version1_gray_lm/id111_50R_D.png', '../stimuli/version1_gray_lm/id005_50L_C.png', '../stimuli/version1_gray_lm/id005_00C_U.png']",86779.0,0.0,23.0,7.0,encoding,woman,005,"[1, 2]",black,"['50L', '00C']","['C', 'U']",,"{'muct_id': '405', 'lighting': 'w', 'race_guess': 'b', 'gender_guess': 'w', 'quality': '3', 'quality_eyes': '3', 'quality_mouth': '3', 'quality_ears': '3', 'quality_hair': '3', 'quality_neck': '3', 'facial_hair': '0.0', 'notes': 'hair earrings', 'race_common': 'black', 'gender_common': 'woman'}","{'muct_id': '5', 'lighting': 'q', 'race_guess': 'b', 'gender_guess': 'w', 'quality': '3', 'quality_eyes': '3', 'quality_mouth': '3', 'quality_ears': '3', 'quality_hair': '3', 'quality_neck': '3', 'facial_hair': '0.0', 'notes': 'hat', 'race_common': 'black', 'gender_common': 'woman'}",,,,,,,,,,,,,,,,,,,,,,,,,,,,,,,,,,,,,,,,,,,,,,6266e4b905dee01448e38f74,6266e20a583caa8581feb913,5dda51f040460e9a0f5f6a70,,,,,,,,,,,,,,,,,,,,
8222,6266e52106b19921fe99d0ba,Chrome,2.0,main_task,1.0,2.0,chris,"4/25/2022, 11:14:57 AM",5a1s60o6zgtxfmr92myb,0.0-18.0,pilot_prolific_20_trials,39,man,104,1.0,white,50L,C,4050.0,"['../stimuli/version1_gray_lm/id074_25R_D.png', '../stimuli/version1_gray_lm/id104_50L_C.png', '../stimuli/version1_gray_lm/id074_00C_U.png']",91506.0,0.0,25.0,8.0,encoding,man,074,"[0, 2]",white,"['25R', '00C']","['D', 'U']",,"{'muct_id': '287', 'lighting': 't', 'race_guess': 'w', 'gender_guess': 'm', 'quality': '3', 'quality_eyes': '3', 'quality_mouth': '3', 'quality_ears': '3', 'quality_hair': '3', 'quality_neck': '3', 'facial_hair': '2.0', 'notes': None, 'race_common': 'white', 'gender_common': 'man'}","{'muct_id': '229', 'lighting': 't', 'race_guess': 'w', 'gender_guess': 'm', 'quality': '3', 'quality_eyes': '3', 'quality_mouth': '3', 'quality_ears': '3', 'quality_hair': '3', 'quality_neck': '3', 'facial_hair': '2.0', 'notes': 'mouth', 'race_common': 'white', 'gender_common': 'man'}",,,,,,,,,,,,,,,,,,,,,,,,,,,,,,,,,,,,,,,,,,,,,,6266e4b905dee01448e38f74,6266e20a583caa8581feb913,5dda51f040460e9a0f5f6a70,,,,,,,,,,,,,,,,,,,,
8223,6266e52d06b19921fe99d0bb,Chrome,1.0,main_task,1.0,1.0,chris,"4/25/2022, 11:15:09 AM",5a1s60o6zgtxfmr92myb,0.0-26.0,pilot_prolific_20_trials,37,man,117,0.0,black,00C,D,2596.0,"['../stimuli/version1_gray_lm/id117_00C_D.png', '../stimuli/version1_gray_lm/id065_50R_C.png', '../stimuli/version1_gray_lm/id065_50L_U.png']",103533.0,0.0,33.0,12.0,encoding,man,065,"[1, 2]",black,"['50R', '50L']","['C', 'U']",,"{'muct_id': '417', 'lighting': 'w', 'race_guess': 'b', 'gender_guess': 'm', 'quality': '3', 'quality_eyes': '3', 'quality_mouth': '3', 'quality_ears': '3', 'quality_hair': '3', 'quality_neck': '3', 'facial_hair': '1.0', 'notes': 'mouth', 'race_common': 'black', 'gender_common': 'man'}","{'muct_id': '206', 'lighting': 't', 'race_guess': 'b', 'gender_guess': 'm', 'quality': '3', 'quality_eyes': '3', 'quality_mouth': '3', 'quality_ears': '3', 'quality_hair': '3', 'quality_neck': '3', 'facial_hair': '1.0', 'notes': None, 'race_common': 'black', 'gender_common': 'man'}",,,,,,,,,,,,,,,,,,,,,,,,,,,,,,,,,,,,,,,,,,,,,,6266e4b905dee01448e38f74,6266e20a583caa8581feb913,5dda51f040460e9a0f5f6a70,,,,,,,,,,,,,,,,,,,,
8224,6266e52f06b19921fe99d0bc,Chrome,1.0,main_task,1.0,1.0,chris,"4/25/2022, 11:15:11 AM",5a1s60o6zgtxfmr92myb,0.0-28.0,pilot_prolific_20_trials,37,man,119,0.0,black,00C,U,1993.0,"['../stimuli/version1_gray_lm/id119_00C_U.png', '../stimuli/version1_gray_lm/id137_25R_D.png', '../stimuli/version1_gray_lm/id137_50L_C.png']",105833.0,0.0,35.0,13.0,encoding,man,137,"[1, 2]",black,"['25R', '50L']","['D', 'C']",,"{'muct_id': '420', 'lighting': 'w', 'race_guess': 'b', 'gender_guess': 'm', 'quality': '3', 'quality_eyes': '3', 'quality_mouth': '3', 'quality_ears': '3', 'quality_hair': '3', 'quality_neck': '3', 'facial_hair': '0.0', 'notes': None, 'race_common': 'black', 'gender_common': 'man'}","{'muct_id': '617', 'lighting': 'y', 'race_guess': 'b', 'gender_guess': 'w', 'quality': '3', 'quality_eyes': '3', 'quality_mouth': '3', 'quality_ears': '3', 'quality_hair': '3', 'quality_neck': '3', 'facial_hair': '0.0', 'notes': 'mouth', 'race_common': 'black', 'gender_common': 'man'}",,,,,,,,,,,,,,,,,,,,,,,,,,,,,,,,,,,,,,,,,,,,,,6266e4b905dee01448e38f74,6266e20a583caa8581feb913,5dda51f040460e9a0f5f6a70,,,,,,,,,,,,,,,,,,,,
8225,6266e53406b19921fe99d0bd,Chrome,2.0,main_task,0.0,3.0,chris,"4/25/2022, 11:15:16 AM",5a1s60o6zgtxfmr92myb,0.0-30.0,pilot_prolific_20_trials,39,man,115,2.0,white,50R,U,4367.0,"['../stimuli/version1_gray_lm/id145_00C_D.png', '../stimuli/version1_gray_lm/id145_25L_C.png', '../stimuli/version1_gray_lm/id115_50R_U.png']",110577.0,0.0,37.0,14.0,encoding,man,145,"[0, 1]",white,"['00C', '25L']","['D', 'C']",,"{'muct_id': '412', 'lighting': 'x', 'race_guess': 'w', 'gender_guess': 'm', 'quality': '3', 'quality_eyes': '3', 'quality_mouth': '3', 'quality_ears': '3', 'quality_hair': '3', 'quality_neck': '3', 'facial_hair': '0.0', 'notes': None, 'race_common': 'white', 'gender_common': 'man'}","{'muct_id': '230', 'lighting': 'u', 'race_guess': 'w', 'gender_guess': 'm', 'quality': '3', 'quality_eyes': '3', 'quality_mouth': '3', 'quality_ears': '3', 'quality_hair': '3', 'quality_neck': '3', 'facial_hair': '0.0', 'notes': 'hair', 'race_common': 'white', 'gender_common': 'man'}",,,,,,,,,,,,,,,,,,,,,,,,,,,,,,,,,,,,,,,,,,,,,,6266e4b905dee01448e38f74,6266e20a583caa8581feb913,5dda51f040460e9a0f5f6a70,,,,,,,,,,,,,,,,,,,,
8226,6266e53706b19921fe99d0be,Chrome,3.0,main_task,1.0,3.0,chris,"4/25/2022, 2:15:19 PM",1w1a8rs9z42fbg7elbu2,0.0-2.0-0.0,pilot_prolific_20_trials,40,woman,108,2.0,latinx,00C,D,3719.0,"['../stimuli/version1_gray_lm/id107_25L_U.png', '../stimuli/version1_gray_lm/id107_50R_C.png', '../stimuli/version1_gray_lm/id108_00C_D.png']",68932.0,0.0,2.0,1.0,encoding_practice,man,107,"[0, 1]",latinx,"['25L', '50R']","['U', 'C']",,,,,,,,,,,,,,,,,,,,,,,,,,,,,,,,,,,,,,,,,,,,,,,,,6266e4e12ce4af34166e297d,6266e20a583caa8581feb914,58e65be75661210001dba206,,,,,,,,,,,,,,,,,,,,
8227,6266e53906b19921fe99d0bf,Chrome,1.0,main_task,1.0,1.0,chris,"4/25/2022, 11:15:20 AM",5a1s60o6zgtxfmr92myb,0.0-32.0,pilot_prolific_20_trials,37,man,116,0.0,white,25L,D,4220.0,"['../stimuli/version1_gray_lm/id116_25L_D.png', '../stimuli/version1_gray_lm/id092_25R_U.png', '../stimuli/version1_gray_lm/id092_00C_C.png']",115144.0,0.0,39.0,15.0,encoding,man,092,"[1, 2]",white,"['25R', '00C']","['U', 'C']",,"{'muct_id': '414', 'lighting': 'w', 'race_guess': 'w', 'gender_guess': 'm', 'quality': '3', 'quality_eyes': '3', 'quality_mouth': '3', 'quality_ears': '3', 'quality_hair': '3', 'quality_neck': '3', 'facial_hair': '0.0', 'notes': None, 'race_common': 'white', 'gender_common': 'man'}","{'muct_id': '261', 'lighting': 'v', 'race_guess': 'w', 'gender_guess': 'm', 'quality': '2', 'quality_eyes': '2', 'quality_mouth': '3', 'quality_ears': '3', 'quality_hair': '3', 'quality_neck': '3', 'facial_hair': '0.0', 'notes': None, 'race_common': 'white', 'gender_common': 'man'}",,,,,,,,,,,,,,,,,,,,,,,,,,,,,,,,,,,,,,,,,,,,,,6266e4b905dee01448e38f74,6266e20a583caa8581feb913,5dda51f040460e9a0f5f6a70,,,,,,,,,,,,,,,,,,,,
8228,6266e53c06b19921fe99d0c0,Chrome,1.0,main_task,1.0,1.0,chris,"4/25/2022, 11:15:24 AM",5a1s60o6zgtxfmr92myb,0.0-34.0,pilot_prolific_20_trials,37,man,118,0.0,black,00C,C,3057.0,"['../stimuli/version1_gray_lm/id118_00C_C.png', '../stimuli/version1_gray_lm/id001_50R_U.png', '../stimuli/version1_gray_lm/id001_25L_D.png']",118661.0,0.0,41.0,16.0,encoding,man,001,"[1, 2]",black,"['50R', '25L']","['U', 'D']",,"{'muct_id': '419', 'lighting': 'x', 'race_guess': 'b', 'gender_guess': 'm', 'quality': '3', 'quality_eyes': '3', 'quality_mouth': '3', 'quality_ears': '3', 'quality_hair': '3', 'quality_neck': '3', 'facial_hair': '1.0', 'notes': None, 'race_common': 'black', 'gender_common': 'man'}","{'muct_id': '1', 'lighting': 'q', 'race_guess': 'b', 'gender_guess': 'm', 'quality': '3', 'quality_eyes': '3', 'quality_mouth': '3', 'quality_ears': '3', 'quality_hair': '3', 'quality_neck': '3', 'facial_hair': '1.0', 'notes': None, 'race_common': 'black', 'gender_common': 'man'}",,,,,,,,,,,,,,,,,,,,,,,,,,,,,,,,,,,,,,,,,,,,,,6266e4b905dee01448e38f74,6266e20a583caa8581feb913,5dda51f040460e9a0f5f6a70,,,,,,,,,,,,,,,,,,,,
8229,6266e53e06b19921fe99d0c1,Chrome,1.0,main_task,1.0,1.0,chris,"4/25/2022, 2:15:26 PM",1w1a8rs9z42fbg7elbu2,0.0-2.1-0.1,pilot_prolific_20_trials,37,woman,106,0.0,latinx,00C,C,3961.0,"['../stimuli/version1_gray_lm/id106_00C_C.png', '../stimuli/version1_gray_lm/id108_50R_U.png', '../stimuli/version1_gray_lm/id108_50L_D.png']",75999.0,0.0,4.0,2.0,encoding_practice,woman,108,"[1, 2]",latinx,"['50R', '50L']","['U', 'D']",,,,,,,,,,,,,,,,,,,,,,,,,,,,,,,,,,,,,,,,,,,,,,,,,6266e4e12ce4af34166e297d,6266e20a583caa8581feb914,58e65be75661210001dba206,,,,,,,,,,,,,,,,,,,,
8230,6266e54006b19921fe99d0c2,Chrome,2.0,main_task,1.0,2.0,chris,"4/25/2022, 11:15:27 AM",5a1s60o6zgtxfmr92myb,0.0-36.0,pilot_prolific_20_trials,39,woman,120,1.0,black,00C,C,2979.0,"['../stimuli/version1_gray_lm/id059_25L_U.png', '../stimuli/version1_gray_lm/id120_00C_C.png', '../stimuli/version1_gray_lm/id059_50R_D.png']",122161.0,0.0,43.0,17.0,encoding,woman,059,"[0, 2]",black,"['25L', '50R']","['U', 'D']",,"{'muct_id': '421', 'lighting': 'x', 'race_guess': 'b', 'gender_guess': 'w', 'quality': '3', 'quality_eyes': '3', 'quality_mouth': '3', 'quality_ears': '3', 'quality_hair': '3', 'quality_neck': '3', 'facial_hair': '0.0', 'notes': None, 'race_common': 'black', 'gender_common': 'woman'}","{'muct_id': '86', 'lighting': 'q', 'race_guess': 'b', 'gender_guess': 'w', 'quality': '3', 'quality_eyes': '3', 'quality_mouth': '3', 'quality_ears': '3', 'quality_hair': '3', 'quality_neck': '3', 'facial_hair': '0.0', 'notes': 'earrings', 'race_common': 'black', 'gender_common': 'woman'}",,,,,,,,,,,,,,,,,,,,,,,,,,,,,,,,,,,,,,,,,,,,,,6266e4b905dee01448e38f74,6266e20a583caa8581feb913,5dda51f040460e9a0f5f6a70,,,,,,,,,,,,,,,,,,,,
8231,6266e54106b19921fe99d0c3,Chrome,1.0,main_task,1.0,1.0,chris,"4/25/2022, 2:15:29 PM",1w1a8rs9z42fbg7elbu2,0.0-2.2-0.2,pilot_prolific_20_trials,37,woman,106,0.0,latinx,25R,D,2256.0,"['../stimuli/version1_gray_lm/id106_25R_D.png', '../stimuli/version1_gray_lm/id107_00C_C.png', '../stimuli/version1_gray_lm/id107_25L_U.png']",79350.0,0.0,6.0,3.0,encoding_practice,man,107,"[1, 2]",latinx,"['00C', '25L']","['C', 'U']",1.0,,,,,,,,,,,,,,,,,,,,,,,,,,,,,,,,,,,,,,,,,,,,,,,,6266e4e12ce4af34166e297d,6266e20a583caa8581feb914,58e65be75661210001dba206,,,,,,,,,,,,,,,,,,,,
8232,6266e54106b19921fe99d0c4,Chrome,3.0,main_task,1.0,3.0,chris,"4/25/2022, 11:15:29 AM",5a1s60o6zgtxfmr92myb,0.0-38.0,pilot_prolific_20_trials,40,woman,123,2.0,white,25R,D,1321.0,"['../stimuli/version1_gray_lm/id141_00C_U.png', '../stimuli/version1_gray_lm/id141_50L_C.png', '../stimuli/version1_gray_lm/id123_25R_D.png']",123815.0,0.0,45.0,18.0,encoding,woman,141,"[0, 1]",white,"['00C', '50L']","['U', 'C']",,"{'muct_id': '76', 'lighting': 'q', 'race_guess': 'w', 'gender_guess': 'w', 'quality': '2', 'quality_eyes': '2', 'quality_mouth': '3', 'quality_ears': '2', 'quality_hair': '2', 'quality_neck': '3', 'facial_hair': '0.0', 'notes': 'hair', 'race_common': 'white', 'gender_common': 'woman'}","{'muct_id': '77', 'lighting': 's', 'race_guess': 'w', 'gender_guess': 'w', 'quality': '3', 'quality_eyes': '3', 'quality_mouth': '3', 'quality_ears': '3', 'quality_hair': '3', 'quality_neck': '3', 'facial_hair': '0.0', 'notes': None, 'race_common': 'white', 'gender_common': 'woman'}",,,,,,,,,,,,,,,,,,,,,,,,,,,,,,,,,,,,,,,,,,,,,,6266e4b905dee01448e38f74,6266e20a583caa8581feb913,5dda51f040460e9a0f5f6a70,,,,,,,,,,,,,,,,,,,,
8233,6266e54506b19921fe99d0c5,Chrome,3.0,main_task,1.0,3.0,chris,"4/25/2022, 11:15:32 AM",5a1s60o6zgtxfmr92myb,0.0-40.0,pilot_prolific_20_trials,40,woman,125,2.0,white,25L,U,3069.0,"['../stimuli/version1_gray_lm/id003_00C_C.png', '../stimuli/version1_gray_lm/id003_25R_D.png', '../stimuli/version1_gray_lm/id125_25L_U.png']",127207.0,0.0,47.0,19.0,encoding,woman,003,"[0, 1]",white,"['00C', '25R']","['C', 'D']",,"{'muct_id': '433', 'lighting': 'x', 'race_guess': 'w', 'gender_guess': 'w', 'quality': '3', 'quality_eyes': '3', 'quality_mouth': '3', 'quality_ears': '3', 'quality_hair': '3', 'quality_neck': '3', 'facial_hair': '0.0', 'notes': None, 'race_common': 'white', 'gender_common': 'woman'}","{'muct_id': '3', 'lighting': 's', 'race_guess': 'i', 'gender_guess': 'w', 'quality': '2', 'quality_eyes': '3', 'quality_mouth': '3', 'quality_ears': '3', 'quality_hair': '2', 'quality_neck': '3', 'facial_hair': '0.0', 'notes': 'hair', 'race_common': 'white', 'gender_common': 'woman'}",,,,,,,,,,,,,,,,,,,,,,,,,,,,,,,,,,,,,,,,,,,,,,6266e4b905dee01448e38f74,6266e20a583caa8581feb913,5dda51f040460e9a0f5f6a70,,,,,,,,,,,,,,,,,,,,
8234,6266e54906b19921fe99d0c6,Chrome,3.0,main_task,0.0,2.0,chris,"4/25/2022, 11:15:37 AM",5a1s60o6zgtxfmr92myb,0.0-42.0,pilot_prolific_20_trials,40,man,121,1.0,black,00C,C,3652.0,"['../stimuli/version1_gray_lm/id139_50L_U.png', '../stimuli/version1_gray_lm/id121_00C_C.png', '../stimuli/version1_gray_lm/id139_25R_D.png']",131357.0,0.0,49.0,20.0,encoding,man,139,"[0, 2]",black,"['50L', '25R']","['U', 'D']",,"{'muct_id': '423', 'lighting': 'w', 'race_guess': 'b', 'gender_guess': 'm', 'quality': '3', 'quality_eyes': '3', 'quality_mouth': '3', 'quality_ears': '3', 'quality_hair': '3', 'quality_neck': '3', 'facial_hair': '1.0', 'notes': None, 'race_common': 'black', 'gender_common': 'man'}","{'muct_id': '623', 'lighting': 'y', 'race_guess': 'b', 'gender_guess': 'm', 'quality': '3', 'quality_eyes': '3', 'quality_mouth': '3', 'quality_ears': '3', 'quality_hair': '3', 'quality_neck': '3', 'facial_hair': '1.0', 'notes': 'mouth', 'race_common': 'black', 'gender_common': 'man'}",,,,,,,,,,,,,,,,,,,,,,,,,,,,,,,,,,,,,,,,,,,,,,6266e4b905dee01448e38f74,6266e20a583caa8581feb913,5dda51f040460e9a0f5f6a70,,,,,,,,,,,,,,,,,,,,
8235,6266e54b06b19921fe99d0c7,Chrome,3.0,main_task,1.0,3.0,chris,"4/25/2022, 11:15:38 AM",5a1s60o6zgtxfmr92myb,0.0-44.0,pilot_prolific_20_trials,40,woman,103,2.0,black,50L,C,1325.0,"['../stimuli/version1_gray_lm/id019_50R_D.png', '../stimuli/version1_gray_lm/id019_00C_U.png', '../stimuli/version1_gray_lm/id103_50L_C.png']",133083.0,0.0,51.0,21.0,encoding,woman,019,"[0, 1]",black,"['00C', '50R']","['U', 'D']",,"{'muct_id': '285', 'lighting': 'v', 'race_guess': 'b', 'gender_guess': 'w', 'quality': '3', 'quality_eyes': '3', 'quality_mouth': '3', 'quality_ears': '3', 'quality_hair': '3', 'quality_neck': '3', 'facial_hair': '0.0', 'notes': 'earrings', 'race_common': 'black', 'gender_common': 'woman'}","{'muct_id': '23', 'lighting': 'q', 'race_guess': 'b', 'gender_guess': 'u', 'quality': '3', 'quality_eyes': '3', 'quality_mouth': '3', 'quality_ears': '3', 'quality_hair': '3', 'quality_neck': '3', 'facial_hair': '0.0', 'notes': None, 'race_common': 'black', 'gender_common': 'woman'}",,,,,,,,,,,,,,,,,,,,,,,,,,,,,,,,,,,,,,,,,,,,,,6266e4b905dee01448e38f74,6266e20a583caa8581feb913,5dda51f040460e9a0f5f6a70,,,,,,,,,,,,,,,,,,,,
8236,6266e54c06b19921fe99d0c8,Chrome,1.0,main_task,0.0,2.0,chris,"4/25/2022, 2:15:40 PM",1w1a8rs9z42fbg7elbu2,0.0-4.0,pilot_prolific_20_trials,37,man,105,1.0,black,50R,D,3634.0,"['../stimuli/version1_gray_lm/id064_00C_U.png', '../stimuli/version1_gray_lm/id105_50R_D.png', '../stimuli/version1_gray_lm/id064_25L_C.png']",90200.0,0.0,9.0,1.0,encoding,man,064,"[0, 2]",black,"['00C', '25L']","['U', 'C']",,"{'muct_id': '290', 'lighting': 't', 'race_guess': 'b', 'gender_guess': 'm', 'quality': '3', 'quality_eyes': '3', 'quality_mouth': '3', 'quality_ears': '3', 'quality_hair': '3', 'quality_neck': '3', 'facial_hair': '2.0', 'notes': None, 'race_common': 'black', 'gender_common': 'man'}","{'muct_id': '204', 'lighting': 't', 'race_guess': 'b', 'gender_guess': 'm', 'quality': '3', 'quality_eyes': '3', 'quality_mouth': '3', 'quality_ears': '3', 'quality_hair': '3', 'quality_neck': '3', 'facial_hair': '1.0', 'notes': None, 'race_common': 'black', 'gender_common': 'man'}",,,,,,,,,,,,,,,,,,,,,,,,,,,,,,,,,,,,,,,,,,,,,,6266e4e12ce4af34166e297d,6266e20a583caa8581feb914,58e65be75661210001dba206,,,,,,,,,,,,,,,,,,,,
8237,6266e54d06b19921fe99d0c9,Chrome,2.0,main_task,0.0,1.0,chris,"4/25/2022, 11:15:41 AM",5a1s60o6zgtxfmr92myb,0.0-46.0,pilot_prolific_20_trials,39,woman,125,0.0,white,25L,U,2338.0,"['../stimuli/version1_gray_lm/id125_25L_U.png', '../stimuli/version1_gray_lm/id003_00C_C.png', '../stimuli/version1_gray_lm/id003_25R_D.png']",135778.0,0.0,53.0,22.0,encoding,woman,003,"[1, 2]",white,"['00C', '25R']","['C', 'D']",,"{'muct_id': '433', 'lighting': 'x', 'race_guess': 'w', 'gender_guess': 'w', 'quality': '3', 'quality_eyes': '3', 'quality_mouth': '3', 'quality_ears': '3', 'quality_hair': '3', 'quality_neck': '3', 'facial_hair': '0.0', 'notes': None, 'race_common': 'white', 'gender_common': 'woman'}","{'muct_id': '3', 'lighting': 's', 'race_guess': 'i', 'gender_guess': 'w', 'quality': '2', 'quality_eyes': '3', 'quality_mouth': '3', 'quality_ears': '3', 'quality_hair': '2', 'quality_neck': '3', 'facial_hair': '0.0', 'notes': 'hair', 'race_common': 'white', 'gender_common': 'woman'}",,,,,,,,,,,,,,,,,,,,,,,,,,,,,,,,,,,,,,,,,,,,,,6266e4b905dee01448e38f74,6266e20a583caa8581feb913,5dda51f040460e9a0f5f6a70,,,,,,,,,,,,,,,,,,,,
8238,6266e54f06b19921fe99d0ca,Chrome,3.0,main_task,1.0,3.0,chris,"4/25/2022, 11:15:43 AM",5a1s60o6zgtxfmr92myb,0.0-48.0,pilot_prolific_20_trials,40,woman,111,2.0,black,50R,D,1939.0,"['../stimuli/version1_gray_lm/id005_00C_U.png', '../stimuli/version1_gray_lm/id005_50L_C.png', '../stimuli/version1_gray_lm/id111_50R_D.png']",138001.0,0.0,55.0,23.0,encoding,woman,005,"[0, 1]",black,"['50L', '00C']","['C', 'U']",,"{'muct_id': '405', 'lighting': 'w', 'race_guess': 'b', 'gender_guess': 'w', 'quality': '3', 'quality_eyes': '3', 'quality_mouth': '3', 'quality_ears': '3', 'quality_hair': '3', 'quality_neck': '3', 'facial_hair': '0.0', 'notes': 'hair earrings', 'race_common': 'black', 'gender_common': 'woman'}","{'muct_id': '5', 'lighting': 'q', 'race_guess': 'b', 'gender_guess': 'w', 'quality': '3', 'quality_eyes': '3', 'quality_mouth': '3', 'quality_ears': '3', 'quality_hair': '3', 'quality_neck': '3', 'facial_hair': '0.0', 'notes': 'hat', 'race_common': 'black', 'gender_common': 'woman'}",,,,,,,,,,,,,,,,,,,,,,,,,,,,,,,,,,,,,,,,,,,,,,6266e4b905dee01448e38f74,6266e20a583caa8581feb913,5dda51f040460e9a0f5f6a70,,,,,,,,,,,,,,,,,,,,
8239,6266e55006b19921fe99d0cb,Chrome,2.0,main_task,1.0,2.0,chris,"4/25/2022, 2:15:44 PM",1w1a8rs9z42fbg7elbu2,0.0-6.0,pilot_prolific_20_trials,39,woman,101,1.0,white,50L,U,2433.0,"['../stimuli/version1_gray_lm/id031_00C_C.png', '../stimuli/version1_gray_lm/id101_50L_U.png', '../stimuli/version1_gray_lm/id031_50R_D.png']",93590.0,0.0,11.0,2.0,encoding,woman,031,"[0, 2]",white,"['00C', '50R']","['C', 'D']",,"{'muct_id': '281', 'lighting': 't', 'race_guess': 'w', 'gender_guess': 'w', 'quality': '3', 'quality_eyes': '3', 'quality_mouth': '3', 'quality_ears': '3', 'quality_hair': '3', 'quality_neck': '3', 'facial_hair': '0.0', 'notes': None, 'race_common': 'white', 'gender_common': 'woman'}","{'muct_id': '42', 'lighting': 'q', 'race_guess': 'u', 'gender_guess': 'w', 'quality': '2', 'quality_eyes': '3', 'quality_mouth': '3', 'quality_ears': '2', 'quality_hair': '3', 'quality_neck': '3', 'facial_hair': '0.0', 'notes': 'mouth', 'race_common': 'white', 'gender_common': 'woman'}",,,,,,,,,,,,,,,,,,,,,,,,,,,,,,,,,,,,,,,,,,,,,,6266e4e12ce4af34166e297d,6266e20a583caa8581feb914,58e65be75661210001dba206,,,,,,,,,,,,,,,,,,,,
8240,6266e55306b19921fe99d0cc,Chrome,1.0,main_task,1.0,1.0,chris,"4/25/2022, 2:15:47 PM",1w1a8rs9z42fbg7elbu2,0.0-8.0,pilot_prolific_20_trials,37,man,100,0.0,white,25L,C,2594.0,"['../stimuli/version1_gray_lm/id100_25L_C.png', '../stimuli/version1_gray_lm/id092_00C_U.png', '../stimuli/version1_gray_lm/id092_50R_D.png']",97048.0,0.0,13.0,3.0,encoding,man,092,"[1, 2]",white,"['00C', '50R']","['U', 'D']",,"{'muct_id': '280', 'lighting': 'u', 'race_guess': 'w', 'gender_guess': 'm', 'quality': '3', 'quality_eyes': '3', 'quality_mouth': '3', 'quality_ears': '3', 'quality_hair': '3', 'quality_neck': '3', 'facial_hair': '0.0', 'notes': None, 'race_common': 'white', 'gender_common': 'man'}","{'muct_id': '261', 'lighting': 'v', 'race_guess': 'w', 'gender_guess': 'm', 'quality': '2', 'quality_eyes': '2', 'quality_mouth': '3', 'quality_ears': '3', 'quality_hair': '3', 'quality_neck': '3', 'facial_hair': '0.0', 'notes': None, 'race_common': 'white', 'gender_common': 'man'}",,,,,,,,,,,,,,,,,,,,,,,,,,,,,,,,,,,,,,,,,,,,,,6266e4e12ce4af34166e297d,6266e20a583caa8581feb914,58e65be75661210001dba206,,,,,,,,,,,,,,,,,,,,
8241,6266e55606b19921fe99d0cd,Chrome,1.0,main_task,1.0,1.0,chris,"4/25/2022, 11:15:50 AM",5a1s60o6zgtxfmr92myb,0.0-50.0,pilot_prolific_20_trials,37,woman,120,0.0,black,00C,C,6348.0,"['../stimuli/version1_gray_lm/id120_00C_C.png', '../stimuli/version1_gray_lm/id059_25L_U.png', '../stimuli/version1_gray_lm/id059_50R_D.png']",144660.0,0.0,57.0,24.0,encoding,woman,059,"[1, 2]",black,"['25L', '50R']","['U', 'D']",,"{'muct_id': '421', 'lighting': 'x', 'race_guess': 'b', 'gender_guess': 'w', 'quality': '3', 'quality_eyes': '3', 'quality_mouth': '3', 'quality_ears': '3', 'quality_hair': '3', 'quality_neck': '3', 'facial_hair': '0.0', 'notes': None, 'race_common': 'black', 'gender_common': 'woman'}","{'muct_id': '86', 'lighting': 'q', 'race_guess': 'b', 'gender_guess': 'w', 'quality': '3', 'quality_eyes': '3', 'quality_mouth': '3', 'quality_ears': '3', 'quality_hair': '3', 'quality_neck': '3', 'facial_hair': '0.0', 'notes': 'earrings', 'race_common': 'black', 'gender_common': 'woman'}",,,,,,,,,,,,,,,,,,,,,,,,,,,,,,,,,,,,,,,,,,,,,,6266e4b905dee01448e38f74,6266e20a583caa8581feb913,5dda51f040460e9a0f5f6a70,,,,,,,,,,,,,,,,,,,,
8242,6266e55606b19921fe99d0ce,Chrome,2.0,main_task,1.0,2.0,chris,"4/25/2022, 2:15:50 PM",1w1a8rs9z42fbg7elbu2,0.0-10.0,pilot_prolific_20_trials,39,woman,103,1.0,black,25L,U,2693.0,"['../stimuli/version1_gray_lm/id059_50R_C.png', '../stimuli/version1_gray_lm/id103_25L_U.png', '../stimuli/version1_gray_lm/id059_00C_D.png']",100529.0,0.0,15.0,4.0,encoding,woman,059,"[0, 2]",black,"['50R', '00C']","['C', 'D']",,"{'muct_id': '285', 'lighting': 'v', 'race_guess': 'b', 'gender_guess': 'w', 'quality': '3', 'quality_eyes': '3', 'quality_mouth': '3', 'quality_ears': '3', 'quality_hair': '3', 'quality_neck': '3', 'facial_hair': '0.0', 'notes': 'earrings', 'race_common': 'black', 'gender_common': 'woman'}","{'muct_id': '86', 'lighting': 'q', 'race_guess': 'b', 'gender_guess': 'w', 'quality': '3', 'quality_eyes': '3', 'quality_mouth': '3', 'quality_ears': '3', 'quality_hair': '3', 'quality_neck': '3', 'facial_hair': '0.0', 'notes': 'earrings', 'race_common': 'black', 'gender_common': 'woman'}",,,,,,,,,,,,,,,,,,,,,,,,,,,,,,,,,,,,,,,,,,,,,,6266e4e12ce4af34166e297d,6266e20a583caa8581feb914,58e65be75661210001dba206,,,,,,,,,,,,,,,,,,,,
8243,6266e55a06b19921fe99d0cf,Chrome,1.0,main_task,0.0,3.0,chris,"4/25/2022, 11:15:53 AM",5a1s60o6zgtxfmr92myb,0.0-52.0,pilot_prolific_20_trials,37,man,121,2.0,black,00C,C,2901.0,"['../stimuli/version1_gray_lm/id139_50L_U.png', '../stimuli/version1_gray_lm/id139_25R_D.png', '../stimuli/version1_gray_lm/id121_00C_C.png']",148023.0,0.0,59.0,25.0,encoding,man,139,"[0, 1]",black,"['50L', '25R']","['U', 'D']",,"{'muct_id': '423', 'lighting': 'w', 'race_guess': 'b', 'gender_guess': 'm', 'quality': '3', 'quality_eyes': '3', 'quality_mouth': '3', 'quality_ears': '3', 'quality_hair': '3', 'quality_neck': '3', 'facial_hair': '1.0', 'notes': None, 'race_common': 'black', 'gender_common': 'man'}","{'muct_id': '623', 'lighting': 'y', 'race_guess': 'b', 'gender_guess': 'm', 'quality': '3', 'quality_eyes': '3', 'quality_mouth': '3', 'quality_ears': '3', 'quality_hair': '3', 'quality_neck': '3', 'facial_hair': '1.0', 'notes': 'mouth', 'race_common': 'black', 'gender_common': 'man'}",,,,,,,,,,,,,,,,,,,,,,,,,,,,,,,,,,,,,,,,,,,,,,6266e4b905dee01448e38f74,6266e20a583caa8581feb913,5dda51f040460e9a0f5f6a70,,,,,,,,,,,,,,,,,,,,
8244,6266e55c06b19921fe99d0d0,Chrome,2.0,main_task,1.0,2.0,chris,"4/25/2022, 11:15:55 AM",5a1s60o6zgtxfmr92myb,0.0-54.0,pilot_prolific_20_trials,39,man,116,1.0,white,25L,D,1736.0,"['../stimuli/version1_gray_lm/id092_25R_U.png', '../stimuli/version1_gray_lm/id116_25L_D.png', '../stimuli/version1_gray_lm/id092_00C_C.png']",150064.0,0.0,61.0,26.0,encoding,man,092,"[0, 2]",white,"['25R', '00C']","['U', 'C']",,"{'muct_id': '414', 'lighting': 'w', 'race_guess': 'w', 'gender_guess': 'm', 'quality': '3', 'quality_eyes': '3', 'quality_mouth': '3', 'quality_ears': '3', 'quality_hair': '3', 'quality_neck': '3', 'facial_hair': '0.0', 'notes': None, 'race_common': 'white', 'gender_common': 'man'}","{'muct_id': '261', 'lighting': 'v', 'race_guess': 'w', 'gender_guess': 'm', 'quality': '2', 'quality_eyes': '2', 'quality_mouth': '3', 'quality_ears': '3', 'quality_hair': '3', 'quality_neck': '3', 'facial_hair': '0.0', 'notes': None, 'race_common': 'white', 'gender_common': 'man'}",,,,,,,,,,,,,,,,,,,,,,,,,,,,,,,,,,,,,,,,,,,,,,6266e4b905dee01448e38f74,6266e20a583caa8581feb913,5dda51f040460e9a0f5f6a70,,,,,,,,,,,,,,,,,,,,
8245,6266e55c06b19921fe99d0d1,Chrome,1.0,main_task,1.0,1.0,chris,"4/25/2022, 2:15:56 PM",1w1a8rs9z42fbg7elbu2,0.0-12.0,pilot_prolific_20_trials,37,woman,111,0.0,black,50R,U,4776.0,"['../stimuli/version1_gray_lm/id111_50R_U.png', '../stimuli/version1_gray_lm/id060_50L_C.png', '../stimuli/version1_gray_lm/id060_00C_D.png']",106037.0,0.0,17.0,5.0,encoding,woman,060,"[1, 2]",black,"['50L', '00C']","['C', 'D']",,"{'muct_id': '405', 'lighting': 'w', 'race_guess': 'b', 'gender_guess': 'w', 'quality': '3', 'quality_eyes': '3', 'quality_mouth': '3', 'quality_ears': '3', 'quality_hair': '3', 'quality_neck': '3', 'facial_hair': '0.0', 'notes': 'hair earrings', 'race_common': 'black', 'gender_common': 'woman'}","{'muct_id': '88', 'lighting': 'q', 'race_guess': 'b', 'gender_guess': 'w', 'quality': '3', 'quality_eyes': '3', 'quality_mouth': '3', 'quality_ears': '3', 'quality_hair': '3', 'quality_neck': '3', 'facial_hair': '0.0', 'notes': 'earrings', 'race_common': 'black', 'gender_common': 'woman'}",,,,,,,,,,,,,,,,,,,,,,,,,,,,,,,,,,,,,,,,,,,,,,6266e4e12ce4af34166e297d,6266e20a583caa8581feb914,58e65be75661210001dba206,,,,,,,,,,,,,,,,,,,,
8246,6266e55f06b19921fe99d0d2,Chrome,2.0,main_task,1.0,2.0,chris,"4/25/2022, 11:15:59 AM",5a1s60o6zgtxfmr92myb,0.0-56.0,pilot_prolific_20_trials,39,woman,109,1.0,white,00C,U,3547.0,"['../stimuli/version1_gray_lm/id151_50L_C.png', '../stimuli/version1_gray_lm/id109_00C_U.png', '../stimuli/version1_gray_lm/id151_25R_D.png']",153890.0,0.0,63.0,27.0,encoding,woman,151,"[0, 2]",white,"['25R', '50L']","['D', 'C']",,"{'muct_id': '401', 'lighting': 'w', 'race_guess': 'w', 'gender_guess': 'w', 'quality': '3', 'quality_eyes': '3', 'quality_mouth': '3', 'quality_ears': '3', 'quality_hair': '3', 'quality_neck': '3', 'facial_hair': '0.0', 'notes': 'mouth', 'race_common': 'white', 'gender_common': 'woman'}","{'muct_id': '444', 'lighting': 'w', 'race_guess': 'w', 'gender_guess': 'w', 'quality': '3', 'quality_eyes': '3', 'quality_mouth': '3', 'quality_ears': '3', 'quality_hair': '3', 'quality_neck': '3', 'facial_hair': '0.0', 'notes': None, 'race_common': 'white', 'gender_common': 'woman'}",,,,,,,,,,,,,,,,,,,,,,,,,,,,,,,,,,,,,,,,,,,,,,6266e4b905dee01448e38f74,6266e20a583caa8581feb913,5dda51f040460e9a0f5f6a70,,,,,,,,,,,,,,,,,,,,
8247,6266e56006b19921fe99d0d3,Chrome,2.0,main_task,1.0,2.0,chris,"4/25/2022, 2:16:00 PM",1w1a8rs9z42fbg7elbu2,0.0-14.0,pilot_prolific_20_trials,39,man,104,1.0,white,00C,U,3100.0,"['../stimuli/version1_gray_lm/id044_25R_D.png', '../stimuli/version1_gray_lm/id104_00C_U.png', '../stimuli/version1_gray_lm/id044_25L_C.png']",109809.0,0.0,19.0,6.0,encoding,man,044,"[0, 2]",white,"['25R', '25L']","['D', 'C']",,"{'muct_id': '287', 'lighting': 't', 'race_guess': 'w', 'gender_guess': 'm', 'quality': '3', 'quality_eyes': '3', 'quality_mouth': '3', 'quality_ears': '3', 'quality_hair': '3', 'quality_neck': '3', 'facial_hair': '2.0', 'notes': None, 'race_common': 'white', 'gender_common': 'man'}","{'muct_id': '60', 'lighting': 's', 'race_guess': 'u', 'gender_guess': 'm', 'quality': '3', 'quality_eyes': '3', 'quality_mouth': '3', 'quality_ears': '3', 'quality_hair': '3', 'quality_neck': '3', 'facial_hair': '2.0', 'notes': None, 'race_common': 'white', 'gender_common': 'man'}",,,,,,,,,,,,,,,,,,,,,,,,,,,,,,,,,,,,,,,,,,,,,,6266e4e12ce4af34166e297d,6266e20a583caa8581feb914,58e65be75661210001dba206,,,,,,,,,,,,,,,,,,,,
8248,6266e56206b19921fe99d0d4,Chrome,3.0,main_task,1.0,3.0,chris,"4/25/2022, 11:16:02 AM",5a1s60o6zgtxfmr92myb,0.0-58.0,pilot_prolific_20_trials,40,man,119,2.0,black,00C,U,2083.0,"['../stimuli/version1_gray_lm/id137_50L_C.png', '../stimuli/version1_gray_lm/id137_25R_D.png', '../stimuli/version1_gray_lm/id119_00C_U.png']",156328.0,0.0,65.0,28.0,encoding,man,137,"[0, 1]",black,"['25R', '50L']","['D', 'C']",,"{'muct_id': '420', 'lighting': 'w', 'race_guess': 'b', 'gender_guess': 'm', 'quality': '3', 'quality_eyes': '3', 'quality_mouth': '3', 'quality_ears': '3', 'quality_hair': '3', 'quality_neck': '3', 'facial_hair': '0.0', 'notes': None, 'race_common': 'black', 'gender_common': 'man'}","{'muct_id': '617', 'lighting': 'y', 'race_guess': 'b', 'gender_guess': 'w', 'quality': '3', 'quality_eyes': '3', 'quality_mouth': '3', 'quality_ears': '3', 'quality_hair': '3', 'quality_neck': '3', 'facial_hair': '0.0', 'notes': 'mouth', 'race_common': 'black', 'gender_common': 'man'}",,,,,,,,,,,,,,,,,,,,,,,,,,,,,,,,,,,,,,,,,,,,,,6266e4b905dee01448e38f74,6266e20a583caa8581feb913,5dda51f040460e9a0f5f6a70,,,,,,,,,,,,,,,,,,,,
8249,6266e56406b19921fe99d0d5,Chrome,3.0,main_task,1.0,3.0,chris,"4/25/2022, 2:16:04 PM",1w1a8rs9z42fbg7elbu2,0.0-16.0,pilot_prolific_20_trials,40,woman,102,2.0,white,25L,U,3562.0,"['../stimuli/version1_gray_lm/id017_00C_D.png', '../stimuli/version1_gray_lm/id017_50R_C.png', '../stimuli/version1_gray_lm/id102_25L_U.png']",114288.0,0.0,21.0,7.0,encoding,woman,017,"[0, 1]",white,"['00C', '50R']","['D', 'C']",,"{'muct_id': '283', 'lighting': 't', 'race_guess': 'i', 'gender_guess': 'w', 'quality': '3', 'quality_eyes': '3', 'quality_mouth': '3', 'quality_ears': '3', 'quality_hair': '3', 'quality_neck': '3', 'facial_hair': '0.0', 'notes': 'pottu', 'race_common': 'white', 'gender_common': 'woman'}","{'muct_id': '19', 'lighting': 'r', 'race_guess': 'w', 'gender_guess': 'w', 'quality': '3', 'quality_eyes': '3', 'quality_mouth': '3', 'quality_ears': '3', 'quality_hair': '3', 'quality_neck': '3', 'facial_hair': '0.0', 'notes': None, 'race_common': 'white', 'gender_common': 'woman'}",,,,,,,,,,,,,,,,,,,,,,,,,,,,,,,,,,,,,,,,,,,,,,6266e4e12ce4af34166e297d,6266e20a583caa8581feb914,58e65be75661210001dba206,,,,,,,,,,,,,,,,,,,,
8250,6266e56506b19921fe99d0d6,Chrome,1.0,main_task,1.0,1.0,chris,"4/25/2022, 11:16:05 AM",5a1s60o6zgtxfmr92myb,0.0-60.0,pilot_prolific_20_trials,37,man,113,0.0,black,00C,U,2751.0,"['../stimuli/version1_gray_lm/id113_00C_U.png', '../stimuli/version1_gray_lm/id058_50R_D.png', '../stimuli/version1_gray_lm/id058_25L_C.png']",159411.0,0.0,67.0,29.0,encoding,man,058,"[1, 2]",black,"['50R', '25L']","['D', 'C']",,"{'muct_id': '407', 'lighting': 'x', 'race_guess': 'u', 'gender_guess': 'm', 'quality': '3', 'quality_eyes': '3', 'quality_mouth': '3', 'quality_ears': '3', 'quality_hair': '3', 'quality_neck': '3', 'facial_hair': '3.0', 'notes': 'beard', 'race_common': 'black', 'gender_common': 'man'}","{'muct_id': '84', 'lighting': 'q', 'race_guess': 'b', 'gender_guess': 'm', 'quality': '2', 'quality_eyes': '2', 'quality_mouth': '3', 'quality_ears': '3', 'quality_hair': '3', 'quality_neck': '3', 'facial_hair': '3.0', 'notes': 'beard', 'race_common': 'black', 'gender_common': 'man'}",,,,,,,,,,,,,,,,,,,,,,,,,,,,,,,,,,,,,,,,,,,,,,6266e4b905dee01448e38f74,6266e20a583caa8581feb913,5dda51f040460e9a0f5f6a70,,,,,,,,,,,,,,,,,,,,
8251,6266e56906b19921fe99d0d7,Chrome,1.0,main_task,1.0,1.0,chris,"4/25/2022, 2:16:09 PM",1w1a8rs9z42fbg7elbu2,0.0-18.0,pilot_prolific_20_trials,37,man,112,0.0,black,50R,U,3610.0,"['../stimuli/version1_gray_lm/id112_50R_U.png', '../stimuli/version1_gray_lm/id098_00C_C.png', '../stimuli/version1_gray_lm/id098_50L_D.png']",118887.0,0.0,23.0,8.0,encoding,man,098,"[1, 2]",black,"['00C', '50L']","['C', 'D']",,"{'muct_id': '406', 'lighting': 'w', 'race_guess': 'b', 'gender_guess': 'm', 'quality': '3', 'quality_eyes': '3', 'quality_mouth': '3', 'quality_ears': '3', 'quality_hair': '3', 'quality_neck': '3', 'facial_hair': '1.0', 'notes': None, 'race_common': 'black', 'gender_common': 'man'}","{'muct_id': '274', 'lighting': 't', 'race_guess': 'b', 'gender_guess': 'm', 'quality': '3', 'quality_eyes': '3', 'quality_mouth': '3', 'quality_ears': '3', 'quality_hair': '3', 'quality_neck': '3', 'facial_hair': '4.0', 'notes': None, 'race_common': 'black', 'gender_common': 'man'}",,,,,,,,,,,,,,,,,,,,,,,,,,,,,,,,,,,,,,,,,,,,,,6266e4e12ce4af34166e297d,6266e20a583caa8581feb914,58e65be75661210001dba206,,,,,,,,,,,,,,,,,,,,
8252,6266e56906b19921fe99d0d8,Chrome,1.0,main_task,0.0,3.0,chris,"4/25/2022, 11:16:09 AM",5a1s60o6zgtxfmr92myb,0.0-62.0,pilot_prolific_20_trials,37,woman,102,2.0,white,00C,D,4045.0,"['../stimuli/version1_gray_lm/id018_50R_U.png', '../stimuli/version1_gray_lm/id018_25L_C.png', '../stimuli/version1_gray_lm/id102_00C_D.png']",163749.0,0.0,69.0,30.0,encoding,woman,018,"[0, 1]",white,"['50R', '25L']","['U', 'C']",,"{'muct_id': '283', 'lighting': 't', 'race_guess': 'i', 'gender_guess': 'w', 'quality': '3', 'quality_eyes': '3', 'quality_mouth': '3', 'quality_ears': '3', 'quality_hair': '3', 'quality_neck': '3', 'facial_hair': '0.0', 'notes': 'pottu', 'race_common': 'white', 'gender_common': 'woman'}","{'muct_id': '21', 'lighting': 'q', 'race_guess': 'w', 'gender_guess': 'w', 'quality': '3', 'quality_eyes': '3', 'quality_mouth': '3', 'quality_ears': '3', 'quality_hair': '3', 'quality_neck': '3', 'facial_hair': '0.0', 'notes': None, 'race_common': 'white', 'gender_common': 'woman'}",,,,,,,,,,,,,,,,,,,,,,,,,,,,,,,,,,,,,,,,,,,,,,6266e4b905dee01448e38f74,6266e20a583caa8581feb913,5dda51f040460e9a0f5f6a70,,,,,,,,,,,,,,,,,,,,
8253,6266e56d06b19921fe99d0d9,Chrome,1.0,main_task,1.0,1.0,chris,"4/25/2022, 11:16:13 AM",5a1s60o6zgtxfmr92myb,0.0-64.0,pilot_prolific_20_trials,37,man,105,0.0,black,00C,D,3496.0,"['../stimuli/version1_gray_lm/id105_00C_D.png', '../stimuli/version1_gray_lm/id040_50L_C.png', '../stimuli/version1_gray_lm/id040_25R_U.png']",167569.0,0.0,71.0,31.0,encoding,man,040,"[1, 2]",black,"['50L', '25R']","['C', 'U']",,"{'muct_id': '290', 'lighting': 't', 'race_guess': 'b', 'gender_guess': 'm', 'quality': '3', 'quality_eyes': '3', 'quality_mouth': '3', 'quality_ears': '3', 'quality_hair': '3', 'quality_neck': '3', 'facial_hair': '2.0', 'notes': None, 'race_common': 'black', 'gender_common': 'man'}","{'muct_id': '55', 'lighting': 'r', 'race_guess': 'b', 'gender_guess': 'm', 'quality': '3', 'quality_eyes': '3', 'quality_mouth': '3', 'quality_ears': '3', 'quality_hair': '3', 'quality_neck': '3', 'facial_hair': '3.0', 'notes': 'beard', 'race_common': 'black', 'gender_common': 'man'}",,,,,,,,,,,,,,,,,,,,,,,,,,,,,,,,,,,,,,,,,,,,,,6266e4b905dee01448e38f74,6266e20a583caa8581feb913,5dda51f040460e9a0f5f6a70,,,,,,,,,,,,,,,,,,,,
8254,6266e56d06b19921fe99d0da,Chrome,3.0,main_task,1.0,3.0,chris,"4/25/2022, 2:16:13 PM",1w1a8rs9z42fbg7elbu2,0.0-20.0,pilot_prolific_20_trials,40,man,117,2.0,black,25R,D,3582.0,"['../stimuli/version1_gray_lm/id128_50L_C.png', '../stimuli/version1_gray_lm/id128_00C_U.png', '../stimuli/version1_gray_lm/id117_25R_D.png']",123419.0,0.0,25.0,9.0,encoding,man,128,"[0, 1]",black,"['50L', '00C']","['C', 'U']",,"{'muct_id': '417', 'lighting': 'w', 'race_guess': 'b', 'gender_guess': 'm', 'quality': '3', 'quality_eyes': '3', 'quality_mouth': '3', 'quality_ears': '3', 'quality_hair': '3', 'quality_neck': '3', 'facial_hair': '1.0', 'notes': 'mouth', 'race_common': 'black', 'gender_common': 'man'}","{'muct_id': '436', 'lighting': 'w', 'race_guess': 'b', 'gender_guess': 'm', 'quality': '3', 'quality_eyes': '3', 'quality_mouth': '3', 'quality_ears': '3', 'quality_hair': '3', 'quality_neck': '3', 'facial_hair': '3.0', 'notes': 'beard', 'race_common': 'black', 'gender_common': 'man'}",,,,,,,,,,,,,,,,,,,,,,,,,,,,,,,,,,,,,,,,,,,,,,6266e4e12ce4af34166e297d,6266e20a583caa8581feb914,58e65be75661210001dba206,,,,,,,,,,,,,,,,,,,,
8255,6266e56f06b19921fe99d0db,Chrome,3.0,main_task,0.0,2.0,chris,"4/25/2022, 11:16:15 AM",5a1s60o6zgtxfmr92myb,0.0-66.0,pilot_prolific_20_trials,40,woman,101,1.0,white,25R,U,1764.0,"['../stimuli/version1_gray_lm/id054_25L_D.png', '../stimuli/version1_gray_lm/id101_25R_U.png', '../stimuli/version1_gray_lm/id054_00C_C.png']",169615.0,0.0,73.0,32.0,encoding,woman,054,"[0, 2]",white,"['25L', '00C']","['D', 'C']",,"{'muct_id': '281', 'lighting': 't', 'race_guess': 'w', 'gender_guess': 'w', 'quality': '3', 'quality_eyes': '3', 'quality_mouth': '3', 'quality_ears': '3', 'quality_hair': '3', 'quality_neck': '3', 'facial_hair': '0.0', 'notes': None, 'race_common': 'white', 'gender_common': 'woman'}","{'muct_id': '80', 'lighting': 's', 'race_guess': 'b', 'gender_guess': 'w', 'quality': '3', 'quality_eyes': '3', 'quality_mouth': '3', 'quality_ears': '3', 'quality_hair': '3', 'quality_neck': '3', 'facial_hair': '0.0', 'notes': 'earrings', 'race_common': 'white', 'gender_common': 'woman'}",,,,,,,,,,,,,,,,,,,,,,,,,,,,,,,,,,,,,,,,,,,,,,6266e4b905dee01448e38f74,6266e20a583caa8581feb913,5dda51f040460e9a0f5f6a70,,,,,,,,,,,,,,,,,,,,
8256,6266e57206b19921fe99d0dc,Chrome,2.0,main_task,1.0,2.0,chris,"4/25/2022, 2:16:18 PM",1w1a8rs9z42fbg7elbu2,0.0-22.0,pilot_prolific_20_trials,39,woman,109,1.0,white,00C,D,4105.0,"['../stimuli/version1_gray_lm/id153_50R_C.png', '../stimuli/version1_gray_lm/id109_00C_D.png', '../stimuli/version1_gray_lm/id153_25L_U.png']",128494.0,0.0,27.0,10.0,encoding,woman,153,"[0, 2]",white,"['50R', '25L']","['C', 'U']",,"{'muct_id': '401', 'lighting': 'w', 'race_guess': 'w', 'gender_guess': 'w', 'quality': '3', 'quality_eyes': '3', 'quality_mouth': '3', 'quality_ears': '3', 'quality_hair': '3', 'quality_neck': '3', 'facial_hair': '0.0', 'notes': 'mouth', 'race_common': 'white', 'gender_common': 'woman'}","{'muct_id': '437', 'lighting': 'x', 'race_guess': 'w', 'gender_guess': 'w', 'quality': '3', 'quality_eyes': '3', 'quality_mouth': '3', 'quality_ears': '3', 'quality_hair': '3', 'quality_neck': '3', 'facial_hair': '0.0', 'notes': 'hair', 'race_common': 'white', 'gender_common': 'woman'}",,,,,,,,,,,,,,,,,,,,,,,,,,,,,,,,,,,,,,,,,,,,,,6266e4e12ce4af34166e297d,6266e20a583caa8581feb914,58e65be75661210001dba206,,,,,,,,,,,,,,,,,,,,
8257,6266e57406b19921fe99d0dd,Chrome,2.0,main_task,0.0,1.0,chris,"4/25/2022, 11:16:20 AM",5a1s60o6zgtxfmr92myb,0.0-68.0,pilot_prolific_20_trials,39,man,115,0.0,white,50R,U,4740.0,"['../stimuli/version1_gray_lm/id115_50R_U.png', '../stimuli/version1_gray_lm/id145_00C_D.png', '../stimuli/version1_gray_lm/id145_25L_C.png']",174663.0,0.0,75.0,33.0,encoding,man,145,"[1, 2]",white,"['00C', '25L']","['D', 'C']",,"{'muct_id': '412', 'lighting': 'x', 'race_guess': 'w', 'gender_guess': 'm', 'quality': '3', 'quality_eyes': '3', 'quality_mouth': '3', 'quality_ears': '3', 'quality_hair': '3', 'quality_neck': '3', 'facial_hair': '0.0', 'notes': None, 'race_common': 'white', 'gender_common': 'man'}","{'muct_id': '230', 'lighting': 'u', 'race_guess': 'w', 'gender_guess': 'm', 'quality': '3', 'quality_eyes': '3', 'quality_mouth': '3', 'quality_ears': '3', 'quality_hair': '3', 'quality_neck': '3', 'facial_hair': '0.0', 'notes': 'hair', 'race_common': 'white', 'gender_common': 'man'}",,,,,,,,,,,,,,,,,,,,,,,,,,,,,,,,,,,,,,,,,,,,,,6266e4b905dee01448e38f74,6266e20a583caa8581feb913,5dda51f040460e9a0f5f6a70,,,,,,,,,,,,,,,,,,,,
8258,6266e57706b19921fe99d0de,Chrome,2.0,main_task,1.0,2.0,chris,"4/25/2022, 11:16:23 AM",5a1s60o6zgtxfmr92myb,0.0-70.0,pilot_prolific_20_trials,39,man,117,1.0,black,00C,D,2359.0,"['../stimuli/version1_gray_lm/id065_50R_C.png', '../stimuli/version1_gray_lm/id117_00C_D.png', '../stimuli/version1_gray_lm/id065_50L_U.png']",177416.0,0.0,77.0,34.0,encoding,man,065,"[0, 2]",black,"['50R', '50L']","['C', 'U']",,"{'muct_id': '417', 'lighting': 'w', 'race_guess': 'b', 'gender_guess': 'm', 'quality': '3', 'quality_eyes': '3', 'quality_mouth': '3', 'quality_ears': '3', 'quality_hair': '3', 'quality_neck': '3', 'facial_hair': '1.0', 'notes': 'mouth', 'race_common': 'black', 'gender_common': 'man'}","{'muct_id': '206', 'lighting': 't', 'race_guess': 'b', 'gender_guess': 'm', 'quality': '3', 'quality_eyes': '3', 'quality_mouth': '3', 'quality_ears': '3', 'quality_hair': '3', 'quality_neck': '3', 'facial_hair': '1.0', 'notes': None, 'race_common': 'black', 'gender_common': 'man'}",,,,,,,,,,,,,,,,,,,,,,,,,,,,,,,,,,,,,,,,,,,,,,6266e4b905dee01448e38f74,6266e20a583caa8581feb913,5dda51f040460e9a0f5f6a70,,,,,,,,,,,,,,,,,,,,
8259,6266e57806b19921fe99d0df,Chrome,2.0,main_task,1.0,2.0,chris,"4/25/2022, 2:16:24 PM",1w1a8rs9z42fbg7elbu2,0.0-24.0,pilot_prolific_20_trials,39,woman,114,1.0,white,25L,C,4457.0,"['../stimuli/version1_gray_lm/id003_50R_D.png', '../stimuli/version1_gray_lm/id114_25L_C.png', '../stimuli/version1_gray_lm/id003_00C_U.png']",133789.0,0.0,29.0,11.0,encoding,woman,003,"[0, 2]",white,"['50R', '00C']","['D', 'U']",,"{'muct_id': '410', 'lighting': 'w', 'race_guess': 'w', 'gender_guess': 'w', 'quality': '3', 'quality_eyes': '3', 'quality_mouth': '3', 'quality_ears': '3', 'quality_hair': '3', 'quality_neck': '3', 'facial_hair': '0.0', 'notes': 'makeup mouth', 'race_common': 'white', 'gender_common': 'woman'}","{'muct_id': '3', 'lighting': 's', 'race_guess': 'i', 'gender_guess': 'w', 'quality': '2', 'quality_eyes': '3', 'quality_mouth': '3', 'quality_ears': '3', 'quality_hair': '2', 'quality_neck': '3', 'facial_hair': '0.0', 'notes': 'hair', 'race_common': 'white', 'gender_common': 'woman'}",,,,,,,,,,,,,,,,,,,,,,,,,,,,,,,,,,,,,,,,,,,,,,6266e4e12ce4af34166e297d,6266e20a583caa8581feb914,58e65be75661210001dba206,,,,,,,,,,,,,,,,,,,,
8260,6266e57c06b19921fe99d0e0,Chrome,2.0,main_task,1.0,2.0,chris,"4/25/2022, 11:16:27 AM",5a1s60o6zgtxfmr92myb,0.0-72.0,pilot_prolific_20_trials,39,man,118,1.0,black,00C,C,4371.0,"['../stimuli/version1_gray_lm/id001_25L_D.png', '../stimuli/version1_gray_lm/id118_00C_C.png', '../stimuli/version1_gray_lm/id001_50R_U.png']",182093.0,0.0,79.0,35.0,encoding,man,001,"[0, 2]",black,"['50R', '25L']","['U', 'D']",,"{'muct_id': '419', 'lighting': 'x', 'race_guess': 'b', 'gender_guess': 'm', 'quality': '3', 'quality_eyes': '3', 'quality_mouth': '3', 'quality_ears': '3', 'quality_hair': '3', 'quality_neck': '3', 'facial_hair': '1.0', 'notes': None, 'race_common': 'black', 'gender_common': 'man'}","{'muct_id': '1', 'lighting': 'q', 'race_guess': 'b', 'gender_guess': 'm', 'quality': '3', 'quality_eyes': '3', 'quality_mouth': '3', 'quality_ears': '3', 'quality_hair': '3', 'quality_neck': '3', 'facial_hair': '1.0', 'notes': None, 'race_common': 'black', 'gender_common': 'man'}",,,,,,,,,,,,,,,,,,,,,,,,,,,,,,,,,,,,,,,,,,,,,,6266e4b905dee01448e38f74,6266e20a583caa8581feb913,5dda51f040460e9a0f5f6a70,,,,,,,,,,,,,,,,,,,,
8261,6266e57d06b19921fe99d0e1,Chrome,1.0,main_task,1.0,1.0,chris,"4/25/2022, 2:16:29 PM",1w1a8rs9z42fbg7elbu2,0.0-26.0,pilot_prolific_20_trials,37,man,113,0.0,black,00C,C,4301.0,"['../stimuli/version1_gray_lm/id113_00C_C.png', '../stimuli/version1_gray_lm/id081_25R_U.png', '../stimuli/version1_gray_lm/id081_50L_D.png']",138898.0,0.0,31.0,12.0,encoding,man,081,"[1, 2]",black,"['25R', '50L']","['U', 'D']",,"{'muct_id': '407', 'lighting': 'x', 'race_guess': 'u', 'gender_guess': 'm', 'quality': '3', 'quality_eyes': '3', 'quality_mouth': '3', 'quality_ears': '3', 'quality_hair': '3', 'quality_neck': '3', 'facial_hair': '3.0', 'notes': 'beard', 'race_common': 'black', 'gender_common': 'man'}","{'muct_id': '241', 'lighting': 't', 'race_guess': 'u', 'gender_guess': 'm', 'quality': '3', 'quality_eyes': '3', 'quality_mouth': '3', 'quality_ears': '3', 'quality_hair': '3', 'quality_neck': '3', 'facial_hair': '1.0', 'notes': 'mouth', 'race_common': 'black', 'gender_common': 'man'}",,,,,,,,,,,,,,,,,,,,,,,,,,,,,,,,,,,,,,,,,,,,,,6266e4e12ce4af34166e297d,6266e20a583caa8581feb914,58e65be75661210001dba206,,,,,,,,,,,,,,,,,,,,
8262,6266e57d06b19921fe99d0e2,Chrome,2.0,main_task,1.0,2.0,chris,"4/25/2022, 11:16:29 AM",5a1s60o6zgtxfmr92myb,0.0-74.0,pilot_prolific_20_trials,39,man,100,1.0,white,25L,C,1600.0,"['../stimuli/version1_gray_lm/id099_25R_D.png', '../stimuli/version1_gray_lm/id100_25L_C.png', '../stimuli/version1_gray_lm/id099_00C_U.png']",183970.0,0.0,81.0,36.0,encoding,man,099,"[0, 2]",white,"['00C', '25R']","['U', 'D']",,"{'muct_id': '280', 'lighting': 'u', 'race_guess': 'w', 'gender_guess': 'm', 'quality': '3', 'quality_eyes': '3', 'quality_mouth': '3', 'quality_ears': '3', 'quality_hair': '3', 'quality_neck': '3', 'facial_hair': '0.0', 'notes': None, 'race_common': 'white', 'gender_common': 'man'}","{'muct_id': '278', 'lighting': 't', 'race_guess': 'w', 'gender_guess': 'm', 'quality': '3', 'quality_eyes': '3', 'quality_mouth': '3', 'quality_ears': '3', 'quality_hair': '3', 'quality_neck': '3', 'facial_hair': '0.0', 'notes': None, 'race_common': 'white', 'gender_common': 'man'}",,,,,,,,,,,,,,,,,,,,,,,,,,,,,,,,,,,,,,,,,,,,,,6266e4b905dee01448e38f74,6266e20a583caa8581feb913,5dda51f040460e9a0f5f6a70,,,,,,,,,,,,,,,,,,,,
8263,6266e58106b19921fe99d0e3,Chrome,1.0,main_task,1.0,1.0,chris,"4/25/2022, 2:16:33 PM",1w1a8rs9z42fbg7elbu2,0.0-28.0,pilot_prolific_20_trials,37,man,118,0.0,black,50L,U,3743.0,"['../stimuli/version1_gray_lm/id118_50L_U.png', '../stimuli/version1_gray_lm/id132_50R_D.png', '../stimuli/version1_gray_lm/id132_00C_C.png']",143404.0,0.0,33.0,13.0,encoding,man,132,"[1, 2]",black,"['50R', '00C']","['D', 'C']",,"{'muct_id': '419', 'lighting': 'x', 'race_guess': 'b', 'gender_guess': 'm', 'quality': '3', 'quality_eyes': '3', 'quality_mouth': '3', 'quality_ears': '3', 'quality_hair': '3', 'quality_neck': '3', 'facial_hair': '1.0', 'notes': None, 'race_common': 'black', 'gender_common': 'man'}","{'muct_id': '450', 'lighting': 'w', 'race_guess': 'b', 'gender_guess': 'm', 'quality': '3', 'quality_eyes': '3', 'quality_mouth': '3', 'quality_ears': '3', 'quality_hair': '3', 'quality_neck': '3', 'facial_hair': '4.0', 'notes': 'mouth', 'race_common': 'black', 'gender_common': 'man'}",,,,,,,,,,,,,,,,,,,,,,,,,,,,,,,,,,,,,,,,,,,,,,6266e4e12ce4af34166e297d,6266e20a583caa8581feb914,58e65be75661210001dba206,,,,,,,,,,,,,,,,,,,,
8264,6266e58206b19921fe99d0e4,Chrome,1.0,main_task,1.0,1.0,chris,"4/25/2022, 11:16:33 AM",5a1s60o6zgtxfmr92myb,0.0-76.0,pilot_prolific_20_trials,37,woman,114,0.0,white,25R,D,3951.0,"['../stimuli/version1_gray_lm/id114_25R_D.png', '../stimuli/version1_gray_lm/id088_50L_U.png', '../stimuli/version1_gray_lm/id088_00C_C.png']",188173.0,0.0,83.0,37.0,encoding,woman,088,"[1, 2]",white,"['50L', '00C']","['U', 'C']",,"{'muct_id': '410', 'lighting': 'w', 'race_guess': 'w', 'gender_guess': 'w', 'quality': '3', 'quality_eyes': '3', 'quality_mouth': '3', 'quality_ears': '3', 'quality_hair': '3', 'quality_neck': '3', 'facial_hair': '0.0', 'notes': 'makeup mouth', 'race_common': 'white', 'gender_common': 'woman'}","{'muct_id': '252', 'lighting': 't', 'race_guess': 'w', 'gender_guess': 'w', 'quality': '3', 'quality_eyes': '3', 'quality_mouth': '3', 'quality_ears': '3', 'quality_hair': '3', 'quality_neck': '3', 'facial_hair': '0.0', 'notes': 'hair', 'race_common': 'white', 'gender_common': 'woman'}",,,,,,,,,,,,,,,,,,,,,,,,,,,,,,,,,,,,,,,,,,,,,,6266e4b905dee01448e38f74,6266e20a583caa8581feb913,5dda51f040460e9a0f5f6a70,,,,,,,,,,,,,,,,,,,,
8265,6266e58406b19921fe99d0e5,Chrome,1.0,main_task,1.0,1.0,chris,"4/25/2022, 11:16:36 AM",5a1s60o6zgtxfmr92myb,0.0-78.0,pilot_prolific_20_trials,37,woman,123,0.0,white,25R,D,2011.0,"['../stimuli/version1_gray_lm/id123_25R_D.png', '../stimuli/version1_gray_lm/id141_50L_C.png', '../stimuli/version1_gray_lm/id141_00C_U.png']",190460.0,0.0,85.0,38.0,encoding,woman,141,"[1, 2]",white,"['00C', '50L']","['U', 'C']",,"{'muct_id': '76', 'lighting': 'q', 'race_guess': 'w', 'gender_guess': 'w', 'quality': '2', 'quality_eyes': '2', 'quality_mouth': '3', 'quality_ears': '2', 'quality_hair': '2', 'quality_neck': '3', 'facial_hair': '0.0', 'notes': 'hair', 'race_common': 'white', 'gender_common': 'woman'}","{'muct_id': '77', 'lighting': 's', 'race_guess': 'w', 'gender_guess': 'w', 'quality': '3', 'quality_eyes': '3', 'quality_mouth': '3', 'quality_ears': '3', 'quality_hair': '3', 'quality_neck': '3', 'facial_hair': '0.0', 'notes': None, 'race_common': 'white', 'gender_common': 'woman'}",,,,,,,,,,,,,,,,,,,,,,,,,,,,,,,,,,,,,,,,,,,,,,6266e4b905dee01448e38f74,6266e20a583caa8581feb913,5dda51f040460e9a0f5f6a70,,,,,,,,,,,,,,,,,,,,
8266,6266e58506b19921fe99d0e6,Chrome,2.0,main_task,1.0,2.0,chris,"4/25/2022, 2:16:37 PM",1w1a8rs9z42fbg7elbu2,0.0-30.0,pilot_prolific_20_trials,39,man,116,1.0,white,25L,D,2782.0,"['../stimuli/version1_gray_lm/id156_00C_U.png', '../stimuli/version1_gray_lm/id116_25L_D.png', '../stimuli/version1_gray_lm/id156_25R_C.png']",147091.0,0.0,35.0,14.0,encoding,man,156,"[0, 2]",white,"['00C', '25R']","['U', 'C']",,"{'muct_id': '414', 'lighting': 'w', 'race_guess': 'w', 'gender_guess': 'm', 'quality': '3', 'quality_eyes': '3', 'quality_mouth': '3', 'quality_ears': '3', 'quality_hair': '3', 'quality_neck': '3', 'facial_hair': '0.0', 'notes': None, 'race_common': 'white', 'gender_common': 'man'}","{'muct_id': '258', 'lighting': 'u', 'race_guess': 'w', 'gender_guess': 'm', 'quality': '2', 'quality_eyes': '3', 'quality_mouth': '3', 'quality_ears': '3', 'quality_hair': '2', 'quality_neck': '3', 'facial_hair': '0.0', 'notes': 'hair', 'race_common': 'white', 'gender_common': 'man'}",,,,,,,,,,,,,,,,,,,,,,,,,,,,,,,,,,,,,,,,,,,,,,6266e4e12ce4af34166e297d,6266e20a583caa8581feb914,58e65be75661210001dba206,,,,,,,,,,,,,,,,,,,,
8267,6266e58606b19921fe99d0e7,Chrome,3.0,main_task,1.0,3.0,chris,"4/25/2022, 11:16:38 AM",5a1s60o6zgtxfmr92myb,0.0-80.0,pilot_prolific_20_trials,40,man,112,2.0,black,00C,C,1819.0,"['../stimuli/version1_gray_lm/id021_50R_U.png', '../stimuli/version1_gray_lm/id021_50L_D.png', '../stimuli/version1_gray_lm/id112_00C_C.png']",192521.0,0.0,87.0,39.0,encoding,man,021,"[0, 1]",black,"['50R', '50L']","['U', 'D']",,"{'muct_id': '406', 'lighting': 'w', 'race_guess': 'b', 'gender_guess': 'm', 'quality': '3', 'quality_eyes': '3', 'quality_mouth': '3', 'quality_ears': '3', 'quality_hair': '3', 'quality_neck': '3', 'facial_hair': '1.0', 'notes': None, 'race_common': 'black', 'gender_common': 'man'}","{'muct_id': '25', 'lighting': 'r', 'race_guess': 'b', 'gender_guess': 'm', 'quality': '3', 'quality_eyes': '3', 'quality_mouth': '3', 'quality_ears': '3', 'quality_hair': '3', 'quality_neck': '3', 'facial_hair': '2.0', 'notes': None, 'race_common': 'black', 'gender_common': 'man'}",,,,,,,,,,,,,,,,,,,,,,,,,,,,,,,,,,,,,,,,,,,,,,6266e4b905dee01448e38f74,6266e20a583caa8581feb913,5dda51f040460e9a0f5f6a70,,,,,,,,,,,,,,,,,,,,
8268,6266e58a06b19921fe99d0e8,Chrome,2.0,main_task,1.0,2.0,chris,"4/25/2022, 2:16:42 PM",1w1a8rs9z42fbg7elbu2,0.0-32.0,pilot_prolific_20_trials,39,man,119,1.0,black,00C,U,3617.0,"['../stimuli/version1_gray_lm/id083_50L_C.png', '../stimuli/version1_gray_lm/id119_00C_U.png', '../stimuli/version1_gray_lm/id083_25R_D.png']",151709.0,0.0,37.0,15.0,encoding,man,083,"[0, 2]",black,"['50L', '25R']","['C', 'D']",,"{'muct_id': '420', 'lighting': 'w', 'race_guess': 'b', 'gender_guess': 'm', 'quality': '3', 'quality_eyes': '3', 'quality_mouth': '3', 'quality_ears': '3', 'quality_hair': '3', 'quality_neck': '3', 'facial_hair': '0.0', 'notes': None, 'race_common': 'black', 'gender_common': 'man'}","{'muct_id': '243', 'lighting': 'v', 'race_guess': 'b', 'gender_guess': 'm', 'quality': '3', 'quality_eyes': '3', 'quality_mouth': '3', 'quality_ears': '3', 'quality_hair': '3', 'quality_neck': '3', 'facial_hair': '0.0', 'notes': None, 'race_common': 'black', 'gender_common': 'man'}",,,,,,,,,,,,,,,,,,,,,,,,,,,,,,,,,,,,,,,,,,,,,,6266e4e12ce4af34166e297d,6266e20a583caa8581feb914,58e65be75661210001dba206,,,,,,,,,,,,,,,,,,,,
8269,6266e58b06b19921fe99d0e9,Chrome,1.0,main_task,1.0,1.0,chris,"4/25/2022, 11:16:42 AM",5a1s60o6zgtxfmr92myb,0.0-82.0,pilot_prolific_20_trials,37,man,104,0.0,white,50L,C,4225.0,"['../stimuli/version1_gray_lm/id104_50L_C.png', '../stimuli/version1_gray_lm/id074_00C_U.png', '../stimuli/version1_gray_lm/id074_25R_D.png']",197043.0,0.0,89.0,40.0,encoding,man,074,"[1, 2]",white,"['25R', '00C']","['D', 'U']",,"{'muct_id': '287', 'lighting': 't', 'race_guess': 'w', 'gender_guess': 'm', 'quality': '3', 'quality_eyes': '3', 'quality_mouth': '3', 'quality_ears': '3', 'quality_hair': '3', 'quality_neck': '3', 'facial_hair': '2.0', 'notes': None, 'race_common': 'white', 'gender_common': 'man'}","{'muct_id': '229', 'lighting': 't', 'race_guess': 'w', 'gender_guess': 'm', 'quality': '3', 'quality_eyes': '3', 'quality_mouth': '3', 'quality_ears': '3', 'quality_hair': '3', 'quality_neck': '3', 'facial_hair': '2.0', 'notes': 'mouth', 'race_common': 'white', 'gender_common': 'man'}",,,,,,,,,,,,,,,,,,,,,,,,,,,,,,,,,,,,,,,,,,,,,,6266e4b905dee01448e38f74,6266e20a583caa8581feb913,5dda51f040460e9a0f5f6a70,,,,,,,,,,,,,,,,,,,,
8270,6266e58e06b19921fe99d0ea,Chrome,2.0,main_task,1.0,2.0,chris,"4/25/2022, 2:16:46 PM",1w1a8rs9z42fbg7elbu2,0.0-34.0,pilot_prolific_20_trials,39,man,115,1.0,white,00C,D,3257.0,"['../stimuli/version1_gray_lm/id039_25L_C.png', '../stimuli/version1_gray_lm/id115_00C_D.png', '../stimuli/version1_gray_lm/id039_50R_U.png']",155614.0,0.0,39.0,16.0,encoding,man,039,"[0, 2]",white,"['25L', '50R']","['C', 'U']",,"{'muct_id': '412', 'lighting': 'x', 'race_guess': 'w', 'gender_guess': 'm', 'quality': '3', 'quality_eyes': '3', 'quality_mouth': '3', 'quality_ears': '3', 'quality_hair': '3', 'quality_neck': '3', 'facial_hair': '0.0', 'notes': None, 'race_common': 'white', 'gender_common': 'man'}","{'muct_id': '52', 'lighting': 'q', 'race_guess': 'w', 'gender_guess': 'm', 'quality': '3', 'quality_eyes': '3', 'quality_mouth': '3', 'quality_ears': '3', 'quality_hair': '3', 'quality_neck': '3', 'facial_hair': '0.0', 'notes': None, 'race_common': 'white', 'gender_common': 'man'}",,,,,,,,,,,,,,,,,,,,,,,,,,,,,,,,,,,,,,,,,,,,,,6266e4e12ce4af34166e297d,6266e20a583caa8581feb914,58e65be75661210001dba206,,,,,,,,,,,,,,,,,,,,
8271,6266e58e06b19921fe99d0eb,Chrome,,main_task,,,chris,"4/25/2022, 11:16:46 AM",,0.0-84.0,pilot_prolific_20_trials,,,,,,,,2802.5,"<p style='font-size: 150%'><b>You have finished Part 1!</b></p><p>Nice job! On this section, you averaged <b>78% accuracy</b>.</p><p>You're on track to earn a good bonus. Keep up the good work!</p><p>Click 'Next' to continue to Part 2.</p>",200243.0,,91.0,,bonus_update,,,,,,,,,,0,encoding,1.7850000000000004,,,,,,,,,,,,,,,,,,,,,,,,,,,,,,,,,,,,,,,,,,,6266e4b905dee01448e38f74,6266e20a583caa8581feb913,5dda51f040460e9a0f5f6a70,,,,,,,,,,,,,,,,,,,,
8272,6266e59306b19921fe99d0ec,Chrome,2.0,main_task,1.0,2.0,chris,"4/25/2022, 2:16:51 PM",1w1a8rs9z42fbg7elbu2,0.0-36.0,pilot_prolific_20_trials,39,woman,123,1.0,white,25R,D,4647.0,"['../stimuli/version1_gray_lm/id141_25L_C.png', '../stimuli/version1_gray_lm/id123_25R_D.png', '../stimuli/version1_gray_lm/id141_00C_U.png']",160908.0,0.0,41.0,17.0,encoding,woman,141,"[0, 2]",white,"['25L', '00C']","['C', 'U']",,"{'muct_id': '76', 'lighting': 'q', 'race_guess': 'w', 'gender_guess': 'w', 'quality': '2', 'quality_eyes': '2', 'quality_mouth': '3', 'quality_ears': '2', 'quality_hair': '2', 'quality_neck': '3', 'facial_hair': '0.0', 'notes': 'hair', 'race_common': 'white', 'gender_common': 'woman'}","{'muct_id': '77', 'lighting': 's', 'race_guess': 'w', 'gender_guess': 'w', 'quality': '3', 'quality_eyes': '3', 'quality_mouth': '3', 'quality_ears': '3', 'quality_hair': '3', 'quality_neck': '3', 'facial_hair': '0.0', 'notes': None, 'race_common': 'white', 'gender_common': 'woman'}",,,,,,,,,,,,,,,,,,,,,,,,,,,,,,,,,,,,,,,,,,,,,,6266e4e12ce4af34166e297d,6266e20a583caa8581feb914,58e65be75661210001dba206,,,,,,,,,,,,,,,,,,,,
8273,6266e59906b19921fe99d0ed,Chrome,2.0,main_task,0.0,3.0,chris,"4/25/2022, 2:16:57 PM",1w1a8rs9z42fbg7elbu2,0.0-38.0,pilot_prolific_20_trials,39,man,121,2.0,black,00C,C,5608.0,"['../stimuli/version1_gray_lm/id086_25R_D.png', '../stimuli/version1_gray_lm/id086_50L_U.png', '../stimuli/version1_gray_lm/id121_00C_C.png']",167133.0,0.0,43.0,18.0,encoding,man,086,"[0, 1]",black,"['25R', '50L']","['D', 'U']",,"{'muct_id': '423', 'lighting': 'w', 'race_guess': 'b', 'gender_guess': 'm', 'quality': '3', 'quality_eyes': '3', 'quality_mouth': '3', 'quality_ears': '3', 'quality_hair': '3', 'quality_neck': '3', 'facial_hair': '1.0', 'notes': None, 'race_common': 'black', 'gender_common': 'man'}","{'muct_id': '250', 'lighting': 't', 'race_guess': 'b', 'gender_guess': 'm', 'quality': '3', 'quality_eyes': '3', 'quality_mouth': '3', 'quality_ears': '3', 'quality_hair': '3', 'quality_neck': '3', 'facial_hair': '1.0', 'notes': None, 'race_common': 'black', 'gender_common': 'man'}",,,,,,,,,,,,,,,,,,,,,,,,,,,,,,,,,,,,,,,,,,,,,,6266e4e12ce4af34166e297d,6266e20a583caa8581feb914,58e65be75661210001dba206,,,,,,,,,,,,,,,,,,,,
8274,6266e59e06b19921fe99d0ee,Chrome,2.0,main_task,1.0,2.0,chris,"4/25/2022, 2:17:02 PM",1w1a8rs9z42fbg7elbu2,0.0-40.0,pilot_prolific_20_trials,39,woman,120,1.0,black,25L,D,4511.0,"['../stimuli/version1_gray_lm/id144_00C_U.png', '../stimuli/version1_gray_lm/id120_25L_D.png', '../stimuli/version1_gray_lm/id144_25R_C.png']",172348.0,0.0,45.0,19.0,encoding,woman,144,"[0, 2]",black,"['00C', '25R']","['U', 'C']",,"{'muct_id': '421', 'lighting': 'x', 'race_guess': 'b', 'gender_guess': 'w', 'quality': '3', 'quality_eyes': '3', 'quality_mouth': '3', 'quality_ears': '3', 'quality_hair': '3', 'quality_neck': '3', 'facial_hair': '0.0', 'notes': None, 'race_common': 'black', 'gender_common': 'woman'}","{'muct_id': '214', 'lighting': 'u', 'race_guess': 'b', 'gender_guess': 'w', 'quality': '2', 'quality_eyes': '2', 'quality_mouth': '3', 'quality_ears': '3', 'quality_hair': '3', 'quality_neck': '3', 'facial_hair': '0.0', 'notes': None, 'race_common': 'black', 'gender_common': 'woman'}",,,,,,,,,,,,,,,,,,,,,,,,,,,,,,,,,,,,,,,,,,,,,,6266e4e12ce4af34166e297d,6266e20a583caa8581feb914,58e65be75661210001dba206,,,,,,,,,,,,,,,,,,,,
8275,6266e5a006b19921fe99d0ef,Chrome,1.0,main_task,1.0,1.0,chris,"4/25/2022, 11:17:03 AM",5a1s60o6zgtxfmr92myb,0.0-86.0-0.0,pilot_prolific_20_trials,37,,,147.0,,,,1512.0,"['../stimuli/objectome/147.jpeg', '../stimuli/objectome/407.jpeg', '../stimuli/objectome/400.jpeg']",218104.0,0.0,93.0,1.0,filler,,,,,,,,,,,,,animals,TURTLE_L,animals,TURTLE_L,within,"{'1': None, '2': None, '3': None}",animals,"[407, 400]",breed_pug,V0,,,,,,,,,,,,,,,,,,,,,,,,,,,,,,,,,6266e4b905dee01448e38f74,6266e20a583caa8581feb913,5dda51f040460e9a0f5f6a70,,,,,,,,,,,,,,,,,,,,
8276,6266e5a206b19921fe99d0f0,Chrome,2.0,main_task,1.0,2.0,chris,"4/25/2022, 2:17:06 PM",1w1a8rs9z42fbg7elbu2,0.0-42.0,pilot_prolific_20_trials,39,woman,125,1.0,white,00C,U,2454.0,"['../stimuli/version1_gray_lm/id151_25L_D.png', '../stimuli/version1_gray_lm/id125_00C_U.png', '../stimuli/version1_gray_lm/id151_50R_C.png']",175667.0,0.0,47.0,20.0,encoding,woman,151,"[0, 2]",white,"['25L', '50R']","['D', 'C']",,"{'muct_id': '433', 'lighting': 'x', 'race_guess': 'w', 'gender_guess': 'w', 'quality': '3', 'quality_eyes': '3', 'quality_mouth': '3', 'quality_ears': '3', 'quality_hair': '3', 'quality_neck': '3', 'facial_hair': '0.0', 'notes': None, 'race_common': 'white', 'gender_common': 'woman'}","{'muct_id': '444', 'lighting': 'w', 'race_guess': 'w', 'gender_guess': 'w', 'quality': '3', 'quality_eyes': '3', 'quality_mouth': '3', 'quality_ears': '3', 'quality_hair': '3', 'quality_neck': '3', 'facial_hair': '0.0', 'notes': None, 'race_common': 'white', 'gender_common': 'woman'}",,,,,,,,,,,,,,,,,,,,,,,,,,,,,,,,,,,,,,,,,,,,,,6266e4e12ce4af34166e297d,6266e20a583caa8581feb914,58e65be75661210001dba206,,,,,,,,,,,,,,,,,,,,
8277,6266e5a206b19921fe99d0f1,Chrome,2.0,main_task,1.0,2.0,chris,"4/25/2022, 11:17:06 AM",5a1s60o6zgtxfmr92myb,0.0-87.0-0.0,pilot_prolific_20_trials,39,,,994.0,,,,1065.0,"['../stimuli/objectome/2788.jpeg', '../stimuli/objectome/994.jpeg', '../stimuli/objectome/2792.jpeg']",220309.0,0.0,95.0,2.0,filler,,,,,,,,,,,,,animals,LIONESS,animals,LIONESS,within,"{'1': None, '2': None, '3': None}",animals,"[2788, 2792]",hedgehog,V3,,,,,,,,,,,,,,,,,,,,,,,,,,,,,,,,,6266e4b905dee01448e38f74,6266e20a583caa8581feb913,5dda51f040460e9a0f5f6a70,,,,,,,,,,,,,,,,,,,,
8278,6266e5a406b19921fe99d0f2,Chrome,1.0,main_task,1.0,1.0,chris,"4/25/2022, 11:17:07 AM",5a1s60o6zgtxfmr92myb,0.0-88.0-0.0,pilot_prolific_20_trials,37,,,2762.0,,,,1533.0,"['../stimuli/objectome/2762.jpeg', '../stimuli/objectome/2122.jpeg', '../stimuli/objectome/2150.jpeg']",222141.0,0.0,97.0,3.0,filler,,,,,,,,,,,,,animals,hedgehog,animals,hedgehog,within,"{'1': None, '2': None, '3': None}",animals,"[2122, 2150]",blCow,V3,,,,,,,,,,,,,,,,,,,,,,,,,,,,,,,,,6266e4b905dee01448e38f74,6266e20a583caa8581feb913,5dda51f040460e9a0f5f6a70,,,,,,,,,,,,,,,,,,,,
8279,6266e5a606b19921fe99d0f3,Chrome,3.0,main_task,1.0,3.0,chris,"4/25/2022, 2:17:10 PM",1w1a8rs9z42fbg7elbu2,0.0-44.0,pilot_prolific_20_trials,40,woman,103,2.0,black,25L,U,3921.0,"['../stimuli/version1_gray_lm/id059_50R_C.png', '../stimuli/version1_gray_lm/id059_00C_D.png', '../stimuli/version1_gray_lm/id103_25L_U.png']",180238.0,0.0,49.0,21.0,encoding,woman,059,"[0, 1]",black,"['50R', '00C']","['C', 'D']",,"{'muct_id': '285', 'lighting': 'v', 'race_guess': 'b', 'gender_guess': 'w', 'quality': '3', 'quality_eyes': '3', 'quality_mouth': '3', 'quality_ears': '3', 'quality_hair': '3', 'quality_neck': '3', 'facial_hair': '0.0', 'notes': 'earrings', 'race_common': 'black', 'gender_common': 'woman'}","{'muct_id': '86', 'lighting': 'q', 'race_guess': 'b', 'gender_guess': 'w', 'quality': '3', 'quality_eyes': '3', 'quality_mouth': '3', 'quality_ears': '3', 'quality_hair': '3', 'quality_neck': '3', 'facial_hair': '0.0', 'notes': 'earrings', 'race_common': 'black', 'gender_common': 'woman'}",,,,,,,,,,,,,,,,,,,,,,,,,,,,,,,,,,,,,,,,,,,,,,6266e4e12ce4af34166e297d,6266e20a583caa8581feb914,58e65be75661210001dba206,,,,,,,,,,,,,,,,,,,,
8280,6266e5a806b19921fe99d0f4,Chrome,2.0,main_task,1.0,2.0,chris,"4/25/2022, 11:17:12 AM",5a1s60o6zgtxfmr92myb,0.0-90.0,pilot_prolific_20_trials,39,,,2766.0,,,,2027.0,"['../stimuli/objectome/976.jpeg', '../stimuli/objectome/2766.jpeg', '../stimuli/objectome/970.jpeg']",226435.0,0.0,100.0,4.0,filler,,,,,,,,,,,,,animals,hedgehog,animals,hedgehog,within,"{'1': None, '2': None, '3': None}",animals,"[976, 970]",LIONESS,V3,,,,,,,,,,,,,,,,,,,,,,,,,,,,,,,,,6266e4b905dee01448e38f74,6266e20a583caa8581feb913,5dda51f040460e9a0f5f6a70,,,,,,,,,,,,,,,,,,,,
8281,6266e5a906b19921fe99d0f5,Chrome,3.0,main_task,1.0,3.0,chris,"4/25/2022, 2:17:13 PM",1w1a8rs9z42fbg7elbu2,0.0-46.0,pilot_prolific_20_trials,40,woman,125,2.0,white,00C,U,2475.0,"['../stimuli/version1_gray_lm/id151_50R_C.png', '../stimuli/version1_gray_lm/id151_25L_D.png', '../stimuli/version1_gray_lm/id125_00C_U.png']",183495.0,0.0,51.0,22.0,encoding,woman,151,"[0, 1]",white,"['25L', '50R']","['D', 'C']",,"{'muct_id': '433', 'lighting': 'x', 'race_guess': 'w', 'gender_guess': 'w', 'quality': '3', 'quality_eyes': '3', 'quality_mouth': '3', 'quality_ears': '3', 'quality_hair': '3', 'quality_neck': '3', 'facial_hair': '0.0', 'notes': None, 'race_common': 'white', 'gender_common': 'woman'}","{'muct_id': '444', 'lighting': 'w', 'race_guess': 'w', 'gender_guess': 'w', 'quality': '3', 'quality_eyes': '3', 'quality_mouth': '3', 'quality_ears': '3', 'quality_hair': '3', 'quality_neck': '3', 'facial_hair': '0.0', 'notes': None, 'race_common': 'white', 'gender_common': 'woman'}",,,,,,,,,,,,,,,,,,,,,,,,,,,,,,,,,,,,,,,,,,,,,,6266e4e12ce4af34166e297d,6266e20a583caa8581feb914,58e65be75661210001dba206,,,,,,,,,,,,,,,,,,,,
8282,6266e5aa06b19921fe99d0f6,Chrome,2.0,main_task,1.0,2.0,chris,"4/25/2022, 11:17:14 AM",5a1s60o6zgtxfmr92myb,0.0-92.0,pilot_prolific_20_trials,39,,,2159.0,,,,1748.0,"['../stimuli/objectome/988.jpeg', '../stimuli/objectome/2159.jpeg', '../stimuli/objectome/995.jpeg']",228809.0,0.0,102.0,5.0,filler,,,,,,,,,,,,,animals,blCow,animals,blCow,within,"{'1': None, '2': None, '3': None}",animals,"[988, 995]",LIONESS,V3,,,,,,,,,,,,,,,,,,,,,,,,,,,,,,,,,6266e4b905dee01448e38f74,6266e20a583caa8581feb913,5dda51f040460e9a0f5f6a70,,,,,,,,,,,,,,,,,,,,
8283,6266e5ac06b19921fe99d0f7,Chrome,2.0,main_task,1.0,2.0,chris,"4/25/2022, 11:17:16 AM",5a1s60o6zgtxfmr92myb,0.0-94.0,pilot_prolific_20_trials,39,,,2242.0,,,,1550.0,"['../stimuli/objectome/917.jpeg', '../stimuli/objectome/2242.jpeg', '../stimuli/objectome/889.jpeg']",230661.0,0.0,104.0,6.0,filler,,,,,,,,,,,,,animals,breed_pug,animals,breed_pug,within,"{'1': None, '2': None, '3': None}",animals,"[917, 889]",ELEPHANT_M,V3,,,,,,,,,,,,,,,,,,,,,,,,,,,,,,,,,6266e4b905dee01448e38f74,6266e20a583caa8581feb913,5dda51f040460e9a0f5f6a70,,,,,,,,,,,,,,,,,,,,
8284,6266e5ae06b19921fe99d0f8,Chrome,2.0,main_task,1.0,2.0,chris,"4/25/2022, 2:17:18 PM",1w1a8rs9z42fbg7elbu2,0.0-48.0,pilot_prolific_20_trials,39,man,118,1.0,black,50L,U,3442.0,"['../stimuli/version1_gray_lm/id132_00C_C.png', '../stimuli/version1_gray_lm/id118_50L_U.png', '../stimuli/version1_gray_lm/id132_50R_D.png']",187639.0,0.0,53.0,23.0,encoding,man,132,"[0, 2]",black,"['50R', '00C']","['D', 'C']",,"{'muct_id': '419', 'lighting': 'x', 'race_guess': 'b', 'gender_guess': 'm', 'quality': '3', 'quality_eyes': '3', 'quality_mouth': '3', 'quality_ears': '3', 'quality_hair': '3', 'quality_neck': '3', 'facial_hair': '1.0', 'notes': None, 'race_common': 'black', 'gender_common': 'man'}","{'muct_id': '450', 'lighting': 'w', 'race_guess': 'b', 'gender_guess': 'm', 'quality': '3', 'quality_eyes': '3', 'quality_mouth': '3', 'quality_ears': '3', 'quality_hair': '3', 'quality_neck': '3', 'facial_hair': '4.0', 'notes': 'mouth', 'race_common': 'black', 'gender_common': 'man'}",,,,,,,,,,,,,,,,,,,,,,,,,,,,,,,,,,,,,,,,,,,,,,6266e4e12ce4af34166e297d,6266e20a583caa8581feb914,58e65be75661210001dba206,,,,,,,,,,,,,,,,,,,,
8285,6266e5ae06b19921fe99d0f9,Chrome,3.0,main_task,1.0,3.0,chris,"4/25/2022, 11:17:17 AM",5a1s60o6zgtxfmr92myb,0.0-96.0,pilot_prolific_20_trials,40,,,936.0,,,,1238.0,"['../stimuli/objectome/2799.jpeg', '../stimuli/objectome/2779.jpeg', '../stimuli/objectome/936.jpeg']",232213.0,0.0,106.0,7.0,filler,,,,,,,,,,,,,animals,GORILLA,animals,GORILLA,within,"{'1': None, '2': None, '3': None}",animals,"[2799, 2779]",hedgehog,V3,,,,,,,,,,,,,,,,,,,,,,,,,,,,,,,,,6266e4b905dee01448e38f74,6266e20a583caa8581feb913,5dda51f040460e9a0f5f6a70,,,,,,,,,,,,,,,,,,,,
8286,6266e5b206b19921fe99d0fa,Chrome,1.0,main_task,1.0,1.0,chris,"4/25/2022, 11:17:22 AM",5a1s60o6zgtxfmr92myb,0.0-98.0,pilot_prolific_20_trials,37,,,1355.0,,,,4133.0,"['../stimuli/objectome/1355.jpeg', '../stimuli/objectome/1280.jpeg', '../stimuli/objectome/1317.jpeg']",236651.0,0.0,108.0,8.0,filler,,,,,,,,,,,,,chairs,_008,chairs,_008,within,"{'1': None, '2': None, '3': None}",chairs,"[1280, 1317]",_004,V3,,,,,,,,,,,,,,,,,,,,,,,,,,,,,,,,,6266e4b905dee01448e38f74,6266e20a583caa8581feb913,5dda51f040460e9a0f5f6a70,,,,,,,,,,,,,,,,,,,,
8287,6266e5b306b19921fe99d0fb,Chrome,2.0,main_task,0.0,3.0,chris,"4/25/2022, 2:17:22 PM",1w1a8rs9z42fbg7elbu2,0.0-50.0,pilot_prolific_20_trials,39,man,112,2.0,black,50R,U,4172.0,"['../stimuli/version1_gray_lm/id098_50L_D.png', '../stimuli/version1_gray_lm/id098_00C_C.png', '../stimuli/version1_gray_lm/id112_50R_U.png']",192529.0,0.0,55.0,24.0,encoding,man,098,"[0, 1]",black,"['00C', '50L']","['C', 'D']",,"{'muct_id': '406', 'lighting': 'w', 'race_guess': 'b', 'gender_guess': 'm', 'quality': '3', 'quality_eyes': '3', 'quality_mouth': '3', 'quality_ears': '3', 'quality_hair': '3', 'quality_neck': '3', 'facial_hair': '1.0', 'notes': None, 'race_common': 'black', 'gender_common': 'man'}","{'muct_id': '274', 'lighting': 't', 'race_guess': 'b', 'gender_guess': 'm', 'quality': '3', 'quality_eyes': '3', 'quality_mouth': '3', 'quality_ears': '3', 'quality_hair': '3', 'quality_neck': '3', 'facial_hair': '4.0', 'notes': None, 'race_common': 'black', 'gender_common': 'man'}",,,,,,,,,,,,,,,,,,,,,,,,,,,,,,,,,,,,,,,,,,,,,,6266e4e12ce4af34166e297d,6266e20a583caa8581feb914,58e65be75661210001dba206,,,,,,,,,,,,,,,,,,,,
8288,6266e5b406b19921fe99d0fc,Chrome,1.0,main_task,1.0,1.0,chris,"4/25/2022, 11:17:23 AM",5a1s60o6zgtxfmr92myb,0.0-100.0,pilot_prolific_20_trials,37,,,1462.0,,,,1156.0,"['../stimuli/objectome/1462.jpeg', '../stimuli/objectome/1523.jpeg', '../stimuli/objectome/1536.jpeg']",238191.0,0.0,110.0,9.0,filler,,,,,,,,,,,,,chairs,_014,chairs,_014,within,"{'1': None, '2': None, '3': None}",chairs,"[1523, 1536]",_031,V3,,,,,,,,,,,,,,,,,,,,,,,,,,,,,,,,,6266e4b905dee01448e38f74,6266e20a583caa8581feb913,5dda51f040460e9a0f5f6a70,,,,,,,,,,,,,,,,,,,,
8289,6266e5b606b19921fe99d0fd,Chrome,3.0,main_task,1.0,3.0,chris,"4/25/2022, 11:17:25 AM",5a1s60o6zgtxfmr92myb,0.0-102.0,pilot_prolific_20_trials,40,,,1432.0,,,,1495.0,"['../stimuli/objectome/1455.jpeg', '../stimuli/objectome/1463.jpeg', '../stimuli/objectome/1432.jpeg']",239970.0,0.0,112.0,10.0,filler,,,,,,,,,,,,,chairs,_011,chairs,_011,within,"{'1': None, '2': None, '3': None}",chairs,"[1455, 1463]",_014,V3,,,,,,,,,,,,,,,,,,,,,,,,,,,,,,,,,6266e4b905dee01448e38f74,6266e20a583caa8581feb913,5dda51f040460e9a0f5f6a70,,,,,,,,,,,,,,,,,,,,
8290,6266e5b706b19921fe99d0fe,Chrome,1.0,main_task,1.0,1.0,chris,"4/25/2022, 2:17:26 PM",1w1a8rs9z42fbg7elbu2,0.0-52.0,pilot_prolific_20_trials,37,woman,102,0.0,white,25L,U,3058.0,"['../stimuli/version1_gray_lm/id102_25L_U.png', '../stimuli/version1_gray_lm/id017_00C_D.png', '../stimuli/version1_gray_lm/id017_50R_C.png']",196166.0,0.0,57.0,25.0,encoding,woman,017,"[1, 2]",white,"['00C', '50R']","['D', 'C']",,"{'muct_id': '283', 'lighting': 't', 'race_guess': 'i', 'gender_guess': 'w', 'quality': '3', 'quality_eyes': '3', 'quality_mouth': '3', 'quality_ears': '3', 'quality_hair': '3', 'quality_neck': '3', 'facial_hair': '0.0', 'notes': 'pottu', 'race_common': 'white', 'gender_common': 'woman'}","{'muct_id': '19', 'lighting': 'r', 'race_guess': 'w', 'gender_guess': 'w', 'quality': '3', 'quality_eyes': '3', 'quality_mouth': '3', 'quality_ears': '3', 'quality_hair': '3', 'quality_neck': '3', 'facial_hair': '0.0', 'notes': None, 'race_common': 'white', 'gender_common': 'woman'}",,,,,,,,,,,,,,,,,,,,,,,,,,,,,,,,,,,,,,,,,,,,,,6266e4e12ce4af34166e297d,6266e20a583caa8581feb914,58e65be75661210001dba206,,,,,,,,,,,,,,,,,,,,
8291,6266e5b706b19921fe99d0ff,Chrome,2.0,main_task,1.0,2.0,chris,"4/25/2022, 11:17:27 AM",5a1s60o6zgtxfmr92myb,0.0-104.0,pilot_prolific_20_trials,39,,,200.0,,,,1169.0,"['../stimuli/objectome/167.jpeg', '../stimuli/objectome/200.jpeg', '../stimuli/objectome/163.jpeg']",241450.0,0.0,114.0,11.0,filler,,,,,,,,,,,,,chairs,_014,chairs,_014,within,"{'1': None, '2': None, '3': None}",chairs,"[167, 163]",_004,V0,,,,,,,,,,,,,,,,,,,,,,,,,,,,,,,,,6266e4b905dee01448e38f74,6266e20a583caa8581feb913,5dda51f040460e9a0f5f6a70,,,,,,,,,,,,,,,,,,,,
8292,6266e5b806b19921fe99d100,Chrome,1.0,main_task,1.0,1.0,chris,"4/25/2022, 11:17:28 AM",5a1s60o6zgtxfmr92myb,0.0-106.0,pilot_prolific_20_trials,37,,,1457.0,,,,1126.0,"['../stimuli/objectome/1457.jpeg', '../stimuli/objectome/1550.jpeg', '../stimuli/objectome/1533.jpeg']",242888.0,0.0,116.0,12.0,filler,,,,,,,,,,,,,chairs,_014,chairs,_014,within,"{'1': None, '2': None, '3': None}",chairs,"[1550, 1533]",_031,V3,,,,,,,,,,,,,,,,,,,,,,,,,,,,,,,,,6266e4b905dee01448e38f74,6266e20a583caa8581feb913,5dda51f040460e9a0f5f6a70,,,,,,,,,,,,,,,,,,,,
8293,6266e5ba06b19921fe99d101,Chrome,3.0,main_task,1.0,3.0,chris,"4/25/2022, 2:17:29 PM",1w1a8rs9z42fbg7elbu2,0.0-54.0,pilot_prolific_20_trials,40,woman,123,2.0,white,25R,D,2321.0,"['../stimuli/version1_gray_lm/id141_00C_U.png', '../stimuli/version1_gray_lm/id141_25L_C.png', '../stimuli/version1_gray_lm/id123_25R_D.png']",199183.0,0.0,59.0,26.0,encoding,woman,141,"[0, 1]",white,"['25L', '00C']","['C', 'U']",,"{'muct_id': '76', 'lighting': 'q', 'race_guess': 'w', 'gender_guess': 'w', 'quality': '2', 'quality_eyes': '2', 'quality_mouth': '3', 'quality_ears': '2', 'quality_hair': '2', 'quality_neck': '3', 'facial_hair': '0.0', 'notes': 'hair', 'race_common': 'white', 'gender_common': 'woman'}","{'muct_id': '77', 'lighting': 's', 'race_guess': 'w', 'gender_guess': 'w', 'quality': '3', 'quality_eyes': '3', 'quality_mouth': '3', 'quality_ears': '3', 'quality_hair': '3', 'quality_neck': '3', 'facial_hair': '0.0', 'notes': None, 'race_common': 'white', 'gender_common': 'woman'}",,,,,,,,,,,,,,,,,,,,,,,,,,,,,,,,,,,,,,,,,,,,,,6266e4e12ce4af34166e297d,6266e20a583caa8581feb914,58e65be75661210001dba206,,,,,,,,,,,,,,,,,,,,
8294,6266e5bd06b19921fe99d102,Chrome,2.0,main_task,1.0,2.0,chris,"4/25/2022, 11:17:33 AM",5a1s60o6zgtxfmr92myb,0.0-108.0,pilot_prolific_20_trials,39,,,1400.0,,,,4202.0,"['../stimuli/objectome/1371.jpeg', '../stimuli/objectome/1400.jpeg', '../stimuli/objectome/1386.jpeg']",247398.0,0.0,118.0,13.0,filler,,,,,,,,,,,,,chairs,_011,chairs,_011,within,"{'1': None, '2': None, '3': None}",chairs,"[1371, 1386]",_010,V3,,,,,,,,,,,,,,,,,,,,,,,,,,,,,,,,,6266e4b905dee01448e38f74,6266e20a583caa8581feb913,5dda51f040460e9a0f5f6a70,,,,,,,,,,,,,,,,,,,,
8295,6266e5bd06b19921fe99d103,Chrome,1.0,main_task,1.0,1.0,chris,"4/25/2022, 2:17:33 PM",1w1a8rs9z42fbg7elbu2,0.0-56.0,pilot_prolific_20_trials,37,man,119,0.0,black,00C,U,3353.0,"['../stimuli/version1_gray_lm/id119_00C_U.png', '../stimuli/version1_gray_lm/id083_50L_C.png', '../stimuli/version1_gray_lm/id083_25R_D.png']",203326.0,0.0,61.0,27.0,encoding,man,083,"[1, 2]",black,"['50L', '25R']","['C', 'D']",,"{'muct_id': '420', 'lighting': 'w', 'race_guess': 'b', 'gender_guess': 'm', 'quality': '3', 'quality_eyes': '3', 'quality_mouth': '3', 'quality_ears': '3', 'quality_hair': '3', 'quality_neck': '3', 'facial_hair': '0.0', 'notes': None, 'race_common': 'black', 'gender_common': 'man'}","{'muct_id': '243', 'lighting': 'v', 'race_guess': 'b', 'gender_guess': 'm', 'quality': '3', 'quality_eyes': '3', 'quality_mouth': '3', 'quality_ears': '3', 'quality_hair': '3', 'quality_neck': '3', 'facial_hair': '0.0', 'notes': None, 'race_common': 'black', 'gender_common': 'man'}",,,,,,,,,,,,,,,,,,,,,,,,,,,,,,,,,,,,,,,,,,,,,,6266e4e12ce4af34166e297d,6266e20a583caa8581feb914,58e65be75661210001dba206,,,,,,,,,,,,,,,,,,,,
8296,6266e5bf06b19921fe99d104,Chrome,2.0,main_task,1.0,2.0,chris,"4/25/2022, 11:17:35 AM",5a1s60o6zgtxfmr92myb,0.0-110.0,pilot_prolific_20_trials,39,,,1580.0,,,,1787.0,"['../stimuli/objectome/1427.jpeg', '../stimuli/objectome/1580.jpeg', '../stimuli/objectome/1436.jpeg']",249477.0,0.0,120.0,14.0,filler,,,,,,,,,,,,,chairs,_033,chairs,_033,within,"{'1': None, '2': None, '3': None}",chairs,"[1427, 1436]",_011,V3,,,,,,,,,,,,,,,,,,,,,,,,,,,,,,,,,6266e4b905dee01448e38f74,6266e20a583caa8581feb913,5dda51f040460e9a0f5f6a70,,,,,,,,,,,,,,,,,,,,
8297,6266e5c106b19921fe99d105,Chrome,3.0,main_task,1.0,3.0,chris,"4/25/2022, 2:17:37 PM",1w1a8rs9z42fbg7elbu2,0.0-58.0,pilot_prolific_20_trials,40,man,100,2.0,white,25L,C,2416.0,"['../stimuli/version1_gray_lm/id092_00C_U.png', '../stimuli/version1_gray_lm/id092_50R_D.png', '../stimuli/version1_gray_lm/id100_25L_C.png']",206604.0,0.0,63.0,28.0,encoding,man,092,"[0, 1]",white,"['00C', '50R']","['U', 'D']",,"{'muct_id': '280', 'lighting': 'u', 'race_guess': 'w', 'gender_guess': 'm', 'quality': '3', 'quality_eyes': '3', 'quality_mouth': '3', 'quality_ears': '3', 'quality_hair': '3', 'quality_neck': '3', 'facial_hair': '0.0', 'notes': None, 'race_common': 'white', 'gender_common': 'man'}","{'muct_id': '261', 'lighting': 'v', 'race_guess': 'w', 'gender_guess': 'm', 'quality': '2', 'quality_eyes': '2', 'quality_mouth': '3', 'quality_ears': '3', 'quality_hair': '3', 'quality_neck': '3', 'facial_hair': '0.0', 'notes': None, 'race_common': 'white', 'gender_common': 'man'}",,,,,,,,,,,,,,,,,,,,,,,,,,,,,,,,,,,,,,,,,,,,,,6266e4e12ce4af34166e297d,6266e20a583caa8581feb914,58e65be75661210001dba206,,,,,,,,,,,,,,,,,,,,
8298,6266e5c406b19921fe99d106,Chrome,2.0,main_task,1.0,2.0,chris,"4/25/2022, 11:17:39 AM",5a1s60o6zgtxfmr92myb,0.0-112.0,pilot_prolific_20_trials,39,,,1842.0,,,,4188.0,"['../stimuli/objectome/2836.jpeg', '../stimuli/objectome/1842.jpeg', '../stimuli/objectome/2839.jpeg']",254012.0,0.0,122.0,15.0,filler,,,,,,,,,,,,,planes,_19_flyingBoat,planes,_19_flyingBoat,within,"{'1': None, '2': None, '3': None}",planes,"[2836, 2839]",junkers88,V3,,,,,,,,,,,,,,,,,,,,,,,,,,,,,,,,,6266e4b905dee01448e38f74,6266e20a583caa8581feb913,5dda51f040460e9a0f5f6a70,,,,,,,,,,,,,,,,,,,,
8299,6266e5c606b19921fe99d107,Chrome,3.0,main_task,1.0,3.0,chris,"4/25/2022, 2:17:42 PM",1w1a8rs9z42fbg7elbu2,0.0-60.0,pilot_prolific_20_trials,40,woman,109,2.0,white,00C,D,4652.0,"['../stimuli/version1_gray_lm/id153_25L_U.png', '../stimuli/version1_gray_lm/id153_50R_C.png', '../stimuli/version1_gray_lm/id109_00C_D.png']",211944.0,0.0,65.0,29.0,encoding,woman,153,"[0, 1]",white,"['50R', '25L']","['C', 'U']",,"{'muct_id': '401', 'lighting': 'w', 'race_guess': 'w', 'gender_guess': 'w', 'quality': '3', 'quality_eyes': '3', 'quality_mouth': '3', 'quality_ears': '3', 'quality_hair': '3', 'quality_neck': '3', 'facial_hair': '0.0', 'notes': 'mouth', 'race_common': 'white', 'gender_common': 'woman'}","{'muct_id': '437', 'lighting': 'x', 'race_guess': 'w', 'gender_guess': 'w', 'quality': '3', 'quality_eyes': '3', 'quality_mouth': '3', 'quality_ears': '3', 'quality_hair': '3', 'quality_neck': '3', 'facial_hair': '0.0', 'notes': 'hair', 'race_common': 'white', 'gender_common': 'woman'}",,,,,,,,,,,,,,,,,,,,,,,,,,,,,,,,,,,,,,,,,,,,,,6266e4e12ce4af34166e297d,6266e20a583caa8581feb914,58e65be75661210001dba206,,,,,,,,,,,,,,,,,,,,
8300,6266e5c706b19921fe99d108,Chrome,3.0,main_task,1.0,3.0,chris,"4/25/2022, 11:17:43 AM",5a1s60o6zgtxfmr92myb,0.0-114.0,pilot_prolific_20_trials,40,,,1847.0,,,,2839.0,"['../stimuli/objectome/2876.jpeg', '../stimuli/objectome/2843.jpeg', '../stimuli/objectome/1847.jpeg']",257473.0,0.0,124.0,16.0,filler,,,,,,,,,,,,,planes,_19_flyingBoat,planes,_19_flyingBoat,within,"{'1': None, '2': None, '3': None}",planes,"[2876, 2843]",mig29,V3,,,,,,,,,,,,,,,,,,,,,,,,,,,,,,,,,6266e4b905dee01448e38f74,6266e20a583caa8581feb913,5dda51f040460e9a0f5f6a70,,,,,,,,,,,,,,,,,,,,
8301,6266e5ca06b19921fe99d109,Chrome,1.0,main_task,1.0,1.0,chris,"4/25/2022, 11:17:45 AM",5a1s60o6zgtxfmr92myb,0.0-116.0,pilot_prolific_20_trials,37,,,1846.0,,,,2120.0,"['../stimuli/objectome/1846.jpeg', '../stimuli/objectome/2411.jpeg', '../stimuli/objectome/2428.jpeg']",260089.0,0.0,126.0,17.0,filler,,,,,,,,,,,,,planes,_19_flyingBoat,planes,_19_flyingBoat,within,"{'1': None, '2': None, '3': None}",planes,"[2411, 2428]",f16,V3,,,,,,,,,,,,,,,,,,,,,,,,,,,,,,,,,6266e4b905dee01448e38f74,6266e20a583caa8581feb913,5dda51f040460e9a0f5f6a70,,,,,,,,,,,,,,,,,,,,
8302,6266e5ca06b19921fe99d10a,Chrome,2.0,main_task,0.0,1.0,chris,"4/25/2022, 2:17:46 PM",1w1a8rs9z42fbg7elbu2,0.0-62.0,pilot_prolific_20_trials,39,man,121,0.0,black,00C,C,3593.0,"['../stimuli/version1_gray_lm/id121_00C_C.png', '../stimuli/version1_gray_lm/id086_50L_U.png', '../stimuli/version1_gray_lm/id086_25R_D.png']",216174.0,0.0,67.0,30.0,encoding,man,086,"[1, 2]",black,"['25R', '50L']","['D', 'U']",,"{'muct_id': '423', 'lighting': 'w', 'race_guess': 'b', 'gender_guess': 'm', 'quality': '3', 'quality_eyes': '3', 'quality_mouth': '3', 'quality_ears': '3', 'quality_hair': '3', 'quality_neck': '3', 'facial_hair': '1.0', 'notes': None, 'race_common': 'black', 'gender_common': 'man'}","{'muct_id': '250', 'lighting': 't', 'race_guess': 'b', 'gender_guess': 'm', 'quality': '3', 'quality_eyes': '3', 'quality_mouth': '3', 'quality_ears': '3', 'quality_hair': '3', 'quality_neck': '3', 'facial_hair': '1.0', 'notes': None, 'race_common': 'black', 'gender_common': 'man'}",,,,,,,,,,,,,,,,,,,,,,,,,,,,,,,,,,,,,,,,,,,,,,6266e4e12ce4af34166e297d,6266e20a583caa8581feb914,58e65be75661210001dba206,,,,,,,,,,,,,,,,,,,,
8303,6266e5cc06b19921fe99d10b,Chrome,3.0,main_task,1.0,3.0,chris,"4/25/2022, 11:17:48 AM",5a1s60o6zgtxfmr92myb,0.0-118.0,pilot_prolific_20_trials,40,,,3028.0,,,,2163.0,"['../stimuli/objectome/2813.jpeg', '../stimuli/objectome/2829.jpeg', '../stimuli/objectome/3028.jpeg']",262680.0,0.0,128.0,18.0,filler,,,,,,,,,,,,,planes,sopwith,planes,sopwith,within,"{'1': None, '2': None, '3': None}",planes,"[2813, 2829]",junkers88,V3,,,,,,,,,,,,,,,,,,,,,,,,,,,,,,,,,6266e4b905dee01448e38f74,6266e20a583caa8581feb913,5dda51f040460e9a0f5f6a70,,,,,,,,,,,,,,,,,,,,
8304,6266e5cf06b19921fe99d10c,Chrome,1.0,main_task,1.0,1.0,chris,"4/25/2022, 11:17:51 AM",5a1s60o6zgtxfmr92myb,0.0-120.0,pilot_prolific_20_trials,37,,,1848.0,,,,2900.0,"['../stimuli/objectome/1848.jpeg', '../stimuli/objectome/1629.jpeg', '../stimuli/objectome/1630.jpeg']",265901.0,0.0,130.0,19.0,filler,,,,,,,,,,,,,planes,_19_flyingBoat,planes,_19_flyingBoat,within,"{'1': None, '2': None, '3': None}",planes,"[1629, 1630]",_05_future,V3,,,,,,,,,,,,,,,,,,,,,,,,,,,,,,,,,6266e4b905dee01448e38f74,6266e20a583caa8581feb913,5dda51f040460e9a0f5f6a70,,,,,,,,,,,,,,,,,,,,
8305,6266e5d006b19921fe99d10d,Chrome,3.0,main_task,1.0,3.0,chris,"4/25/2022, 2:17:52 PM",1w1a8rs9z42fbg7elbu2,0.0-64.0,pilot_prolific_20_trials,40,man,105,2.0,black,50R,D,5581.0,"['../stimuli/version1_gray_lm/id064_00C_U.png', '../stimuli/version1_gray_lm/id064_25L_C.png', '../stimuli/version1_gray_lm/id105_50R_D.png']",222417.0,0.0,69.0,31.0,encoding,man,064,"[0, 1]",black,"['00C', '25L']","['U', 'C']",,"{'muct_id': '290', 'lighting': 't', 'race_guess': 'b', 'gender_guess': 'm', 'quality': '3', 'quality_eyes': '3', 'quality_mouth': '3', 'quality_ears': '3', 'quality_hair': '3', 'quality_neck': '3', 'facial_hair': '2.0', 'notes': None, 'race_common': 'black', 'gender_common': 'man'}","{'muct_id': '204', 'lighting': 't', 'race_guess': 'b', 'gender_guess': 'm', 'quality': '3', 'quality_eyes': '3', 'quality_mouth': '3', 'quality_ears': '3', 'quality_hair': '3', 'quality_neck': '3', 'facial_hair': '1.0', 'notes': None, 'race_common': 'black', 'gender_common': 'man'}",,,,,,,,,,,,,,,,,,,,,,,,,,,,,,,,,,,,,,,,,,,,,,6266e4e12ce4af34166e297d,6266e20a583caa8581feb914,58e65be75661210001dba206,,,,,,,,,,,,,,,,,,,,
8306,6266e5d206b19921fe99d10e,Chrome,2.0,main_task,0.0,3.0,chris,"4/25/2022, 11:17:54 AM",5a1s60o6zgtxfmr92myb,0.0-122.0,pilot_prolific_20_trials,39,,,2845.0,,,,2056.0,"['../stimuli/objectome/1488.jpeg', '../stimuli/objectome/1483.jpeg', '../stimuli/objectome/2845.jpeg']",268376.0,0.0,132.0,20.0,filler,,,,,,,,,,,,,planes,_01_Airliner_2jetEngines,planes,mig29,within,"{'1': None, '2': None, '3': None}",planes,"[1488, 1483]",_01_Airliner_2jetEngines,V3,,,,,,,,,,,,,,,,,,,,,,,,,,,,,,,,,6266e4b905dee01448e38f74,6266e20a583caa8581feb913,5dda51f040460e9a0f5f6a70,,,,,,,,,,,,,,,,,,,,
8307,6266e5d406b19921fe99d10f,Chrome,,main_task,,,chris,"4/25/2022, 11:17:55 AM",,0.0-124.0,pilot_prolific_20_trials,,,,,,,,1281.7000000178814,"<p style='font-size: 150%'><b>You have finished Part 2!</b></p><p>Nice job! On this section, you averaged <b>95% accuracy</b>.</p><p>You're on track to earn a good bonus. Keep up the good work!</p><p>Click 'Next' to continue to Part 3.</p>",270052.0,,134.0,,bonus_update,,,,,,,,,,0,filler,2.6575000000000006,,,,,,,,,,,,,,,,,,,,,,,,,,,,,,,,,,,,,,,,,,,6266e4b905dee01448e38f74,6266e20a583caa8581feb913,5dda51f040460e9a0f5f6a70,,,,,,,,,,,,,,,,,,,,
8308,6266e5d506b19921fe99d110,Chrome,1.0,main_task,1.0,1.0,chris,"4/25/2022, 2:17:57 PM",1w1a8rs9z42fbg7elbu2,0.0-66.0,pilot_prolific_20_trials,37,man,115,0.0,white,00C,D,3891.0,"['../stimuli/version1_gray_lm/id115_00C_D.png', '../stimuli/version1_gray_lm/id039_50R_U.png', '../stimuli/version1_gray_lm/id039_25L_C.png']",226855.0,0.0,71.0,32.0,encoding,man,039,"[1, 2]",white,"['25L', '50R']","['C', 'U']",,"{'muct_id': '412', 'lighting': 'x', 'race_guess': 'w', 'gender_guess': 'm', 'quality': '3', 'quality_eyes': '3', 'quality_mouth': '3', 'quality_ears': '3', 'quality_hair': '3', 'quality_neck': '3', 'facial_hair': '0.0', 'notes': None, 'race_common': 'white', 'gender_common': 'man'}","{'muct_id': '52', 'lighting': 'q', 'race_guess': 'w', 'gender_guess': 'm', 'quality': '3', 'quality_eyes': '3', 'quality_mouth': '3', 'quality_ears': '3', 'quality_hair': '3', 'quality_neck': '3', 'facial_hair': '0.0', 'notes': None, 'race_common': 'white', 'gender_common': 'man'}",,,,,,,,,,,,,,,,,,,,,,,,,,,,,,,,,,,,,,,,,,,,,,6266e4e12ce4af34166e297d,6266e20a583caa8581feb914,58e65be75661210001dba206,,,,,,,,,,,,,,,,,,,,
8309,6266e5dc06b19921fe99d111,Chrome,2.0,main_task,1.0,2.0,chris,"4/25/2022, 2:18:04 PM",1w1a8rs9z42fbg7elbu2,0.0-68.0,pilot_prolific_20_trials,39,woman,111,1.0,black,50R,U,5212.0,"['../stimuli/version1_gray_lm/id060_00C_D.png', '../stimuli/version1_gray_lm/id111_50R_U.png', '../stimuli/version1_gray_lm/id060_50L_C.png']",233768.0,0.0,73.0,33.0,encoding,woman,060,"[0, 2]",black,"['50L', '00C']","['C', 'D']",,"{'muct_id': '405', 'lighting': 'w', 'race_guess': 'b', 'gender_guess': 'w', 'quality': '3', 'quality_eyes': '3', 'quality_mouth': '3', 'quality_ears': '3', 'quality_hair': '3', 'quality_neck': '3', 'facial_hair': '0.0', 'notes': 'hair earrings', 'race_common': 'black', 'gender_common': 'woman'}","{'muct_id': '88', 'lighting': 'q', 'race_guess': 'b', 'gender_guess': 'w', 'quality': '3', 'quality_eyes': '3', 'quality_mouth': '3', 'quality_ears': '3', 'quality_hair': '3', 'quality_neck': '3', 'facial_hair': '0.0', 'notes': 'earrings', 'race_common': 'black', 'gender_common': 'woman'}",,,,,,,,,,,,,,,,,,,,,,,,,,,,,,,,,,,,,,,,,,,,,,6266e4e12ce4af34166e297d,6266e20a583caa8581feb914,58e65be75661210001dba206,,,,,,,,,,,,,,,,,,,,
8310,6266e5e106b19921fe99d112,Chrome,1.0,main_task,1.0,1.0,chris,"4/25/2022, 2:18:09 PM",1w1a8rs9z42fbg7elbu2,0.0-70.0,pilot_prolific_20_trials,37,man,117,0.0,black,25R,D,4259.0,"['../stimuli/version1_gray_lm/id117_25R_D.png', '../stimuli/version1_gray_lm/id128_00C_U.png', '../stimuli/version1_gray_lm/id128_50L_C.png']",238856.0,0.0,75.0,34.0,encoding,man,128,"[1, 2]",black,"['50L', '00C']","['C', 'U']",,"{'muct_id': '417', 'lighting': 'w', 'race_guess': 'b', 'gender_guess': 'm', 'quality': '3', 'quality_eyes': '3', 'quality_mouth': '3', 'quality_ears': '3', 'quality_hair': '3', 'quality_neck': '3', 'facial_hair': '1.0', 'notes': 'mouth', 'race_common': 'black', 'gender_common': 'man'}","{'muct_id': '436', 'lighting': 'w', 'race_guess': 'b', 'gender_guess': 'm', 'quality': '3', 'quality_eyes': '3', 'quality_mouth': '3', 'quality_ears': '3', 'quality_hair': '3', 'quality_neck': '3', 'facial_hair': '3.0', 'notes': 'beard', 'race_common': 'black', 'gender_common': 'man'}",,,,,,,,,,,,,,,,,,,,,,,,,,,,,,,,,,,,,,,,,,,,,,6266e4e12ce4af34166e297d,6266e20a583caa8581feb914,58e65be75661210001dba206,,,,,,,,,,,,,,,,,,,,
8311,6266e5e406b19921fe99d113,Chrome,3.0,main_task,1.0,3.0,chris,"4/25/2022, 2:18:12 PM",1w1a8rs9z42fbg7elbu2,0.0-72.0,pilot_prolific_20_trials,40,man,116,2.0,white,25L,D,2518.0,"['../stimuli/version1_gray_lm/id156_25R_C.png', '../stimuli/version1_gray_lm/id156_00C_U.png', '../stimuli/version1_gray_lm/id116_25L_D.png']",242066.0,0.0,77.0,35.0,encoding,man,156,"[0, 1]",white,"['00C', '25R']","['U', 'C']",,"{'muct_id': '414', 'lighting': 'w', 'race_guess': 'w', 'gender_guess': 'm', 'quality': '3', 'quality_eyes': '3', 'quality_mouth': '3', 'quality_ears': '3', 'quality_hair': '3', 'quality_neck': '3', 'facial_hair': '0.0', 'notes': None, 'race_common': 'white', 'gender_common': 'man'}","{'muct_id': '258', 'lighting': 'u', 'race_guess': 'w', 'gender_guess': 'm', 'quality': '2', 'quality_eyes': '3', 'quality_mouth': '3', 'quality_ears': '3', 'quality_hair': '2', 'quality_neck': '3', 'facial_hair': '0.0', 'notes': 'hair', 'race_common': 'white', 'gender_common': 'man'}",,,,,,,,,,,,,,,,,,,,,,,,,,,,,,,,,,,,,,,,,,,,,,6266e4e12ce4af34166e297d,6266e20a583caa8581feb914,58e65be75661210001dba206,,,,,,,,,,,,,,,,,,,,
8312,6266e5e906b19921fe99d114,Chrome,2.0,main_task,0.0,1.0,chris,"4/25/2022, 2:18:17 PM",1w1a8rs9z42fbg7elbu2,0.0-74.0,pilot_prolific_20_trials,39,woman,101,0.0,white,50L,U,3226.0,"['../stimuli/version1_gray_lm/id101_50L_U.png', '../stimuli/version1_gray_lm/id031_00C_C.png', '../stimuli/version1_gray_lm/id031_50R_D.png']",246615.0,0.0,79.0,36.0,encoding,woman,031,"[1, 2]",white,"['00C', '50R']","['C', 'D']",,"{'muct_id': '281', 'lighting': 't', 'race_guess': 'w', 'gender_guess': 'w', 'quality': '3', 'quality_eyes': '3', 'quality_mouth': '3', 'quality_ears': '3', 'quality_hair': '3', 'quality_neck': '3', 'facial_hair': '0.0', 'notes': None, 'race_common': 'white', 'gender_common': 'woman'}","{'muct_id': '42', 'lighting': 'q', 'race_guess': 'u', 'gender_guess': 'w', 'quality': '2', 'quality_eyes': '3', 'quality_mouth': '3', 'quality_ears': '2', 'quality_hair': '3', 'quality_neck': '3', 'facial_hair': '0.0', 'notes': 'mouth', 'race_common': 'white', 'gender_common': 'woman'}",,,,,,,,,,,,,,,,,,,,,,,,,,,,,,,,,,,,,,,,,,,,,,6266e4e12ce4af34166e297d,6266e20a583caa8581feb914,58e65be75661210001dba206,,,,,,,,,,,,,,,,,,,,
