,_id,browser,choice,collection,correct,correct_response,database,datetime,experiment_id,internal_node_id,iteration,key_press,oddity_gender,oddity_identity,oddity_index,oddity_race,oddity_tiltLR,oddity_tiltUD,rt,stimulus,time_elapsed,timed_out,trial_index,trial_number,trial_type,typicals_gender,typicals_identity,typicals_indices,typicals_race,typicals_tiltsLR,typicals_tiltsUD,practice_threshold_met,oddity_meta,typicals_meta,button_pressed,last_trial_type,prediction,choice_category,choice_object,oddity_category,oddity_name,oddity_type,stimulus_response_map,typical_category,typical_indices,typical_name,variation_level,encoding_pair,encoding_type,gender,identity,meta,original_index,original_tiltLR,original_tiltUD,race,response,retrieval_condition,tiltLR,tiltUD,tilt_change,tilt_difference,original_tilt,encoding_accuracy,encoding_avg_rt,encoding_n_trials,experimental_duration,filler_accuracy,filler_avg_rt,filler_n_trials,params,retrieval_accuracy,retrieval_avg_rt,retrieval_n_trials,total_bonus,total_payment,age,gender_other,latinx,session_id,study_id,subject_id
1978,6258f00f410f6008cca53b01,Chrome,1.0,main_task,0.0,2.0,chris,"4/15/2022, 12:09:52 AM",hc3vbqkqkpoh4ff6y738,0.0-2.0-0.0,pilot_prolific_inform_memory,37,woman,108,1.0,latinx,25R,C,5431.0,"['../stimuli/version1_gray_lm/id106_00C_U.png', '../stimuli/version1_gray_lm/id108_25R_C.png', '../stimuli/version1_gray_lm/id106_50L_D.png']",92119.0,0.0,2.0,1.0,encoding_practice,woman,106,"[0, 2]",latinx,"['00C', '50L']","['U', 'D']",,,,,,,,,,,,,,,,,,,,,,,,,,,,,,,,,,,,,,,,,,,,,,,,,6258efa7c0091b19e2d31b64,6258ed6a796ee239fc08fb8e,61130a12d87efcd777a39fe7
1979,6258f014410f6008cca53b02,Chrome,2.0,main_task,1.0,2.0,chris,"4/15/2022, 12:09:57 AM",hc3vbqkqkpoh4ff6y738,0.0-2.1-0.1,pilot_prolific_inform_memory,39,man,107,1.0,latinx,50R,U,3157.0,"['../stimuli/version1_gray_lm/id106_00C_D.png', '../stimuli/version1_gray_lm/id107_50R_U.png', '../stimuli/version1_gray_lm/id106_25L_C.png']",97350.0,0.0,4.0,2.0,encoding_practice,woman,106,"[0, 2]",latinx,"['00C', '25L']","['D', 'C']",,,,,,,,,,,,,,,,,,,,,,,,,,,,,,,,,,,,,,,,,,,,,,,,,6258efa7c0091b19e2d31b64,6258ed6a796ee239fc08fb8e,61130a12d87efcd777a39fe7
1980,6258f018410f6008cca53b03,Chrome,2.0,main_task,1.0,2.0,chris,"4/15/2022, 12:10:01 AM",hc3vbqkqkpoh4ff6y738,0.0-2.2-0.2,pilot_prolific_inform_memory,39,woman,106,1.0,latinx,50L,C,2294.0,"['../stimuli/version1_gray_lm/id107_00C_D.png', '../stimuli/version1_gray_lm/id106_50L_C.png', '../stimuli/version1_gray_lm/id107_50R_U.png']",101130.0,0.0,6.0,3.0,encoding_practice,man,107,"[0, 2]",latinx,"['00C', '50R']","['D', 'U']",,,,,,,,,,,,,,,,,,,,,,,,,,,,,,,,,,,,,,,,,,,,,,,,,6258efa7c0091b19e2d31b64,6258ed6a796ee239fc08fb8e,61130a12d87efcd777a39fe7
1981,6258f01a410f6008cca53b04,Chrome,3.0,main_task,1.0,3.0,chris,"4/15/2022, 12:10:03 AM",hc3vbqkqkpoh4ff6y738,0.0-2.3-0.3,pilot_prolific_inform_memory,40,woman,106,2.0,latinx,25R,U,1622.0,"['../stimuli/version1_gray_lm/id107_00C_D.png', '../stimuli/version1_gray_lm/id107_50L_C.png', '../stimuli/version1_gray_lm/id106_25R_U.png']",103646.0,0.0,8.0,4.0,encoding_practice,man,107,"[0, 1]",latinx,"['00C', '50L']","['D', 'C']",1.0,,,,,,,,,,,,,,,,,,,,,,,,,,,,,,,,,,,,,,,,,,,,,,,,6258efa7c0091b19e2d31b64,6258ed6a796ee239fc08fb8e,61130a12d87efcd777a39fe7
1982,6258f02c410f6008cca53b05,Chrome,3.0,main_task,1.0,3.0,chris,"4/15/2022, 12:10:21 AM",hc3vbqkqkpoh4ff6y738,0.0-4.0,pilot_prolific_inform_memory,40,woman,103,2.0,black,25L,U,7386.0,"['../stimuli/version1_gray_lm/id035_50R_D.png', '../stimuli/version1_gray_lm/id035_00C_C.png', '../stimuli/version1_gray_lm/id103_25L_U.png']",121036.0,0.0,11.0,1.0,encoding,woman,035,"[0, 1]",black,"['50R', '00C']","['D', 'C']",,"{'muct_id': '285', 'lighting': 'v', 'race_guess': 'b', 'gender_guess': 'w', 'quality': '3', 'quality_eyes': '3', 'quality_mouth': '3', 'quality_ears': '3', 'quality_hair': '3', 'quality_neck': '3', 'facial_hair': '0.0', 'notes': 'earrings', 'race_common': 'black', 'gender_common': 'woman'}","{'muct_id': '46', 'lighting': 'q', 'race_guess': 'b', 'gender_guess': 'w', 'quality': '3', 'quality_eyes': '3', 'quality_mouth': '3', 'quality_ears': '3', 'quality_hair': '3', 'quality_neck': '3', 'facial_hair': '0.0', 'notes': 'earrings', 'race_common': 'black', 'gender_common': 'woman'}",,,,,,,,,,,,,,,,,,,,,,,,,,,,,,,,,,,,,,,,,,,,,,6258efa7c0091b19e2d31b64,6258ed6a796ee239fc08fb8e,61130a12d87efcd777a39fe7
1983,6258f030410f6008cca53b06,Chrome,3.0,main_task,1.0,3.0,chris,"4/15/2022, 12:10:25 AM",hc3vbqkqkpoh4ff6y738,0.0-6.0,pilot_prolific_inform_memory,40,man,105,2.0,black,50R,C,3215.0,"['../stimuli/version1_gray_lm/id004_25L_D.png', '../stimuli/version1_gray_lm/id004_00C_U.png', '../stimuli/version1_gray_lm/id105_50R_C.png']",125374.0,0.0,13.0,2.0,encoding,man,004,"[0, 1]",black,"['25L', '00C']","['D', 'U']",,"{'muct_id': '290', 'lighting': 't', 'race_guess': 'b', 'gender_guess': 'm', 'quality': '3', 'quality_eyes': '3', 'quality_mouth': '3', 'quality_ears': '3', 'quality_hair': '3', 'quality_neck': '3', 'facial_hair': '2.0', 'notes': None, 'race_common': 'black', 'gender_common': 'man'}","{'muct_id': '4', 'lighting': 'q', 'race_guess': 'b', 'gender_guess': 'm', 'quality': '3', 'quality_eyes': '3', 'quality_mouth': '3', 'quality_ears': '3', 'quality_hair': '3', 'quality_neck': '3', 'facial_hair': '2.0', 'notes': None, 'race_common': 'black', 'gender_common': 'man'}",,,,,,,,,,,,,,,,,,,,,,,,,,,,,,,,,,,,,,,,,,,,,,6258efa7c0091b19e2d31b64,6258ed6a796ee239fc08fb8e,61130a12d87efcd777a39fe7
1984,6258f034410f6008cca53b07,Chrome,2.0,main_task,1.0,2.0,chris,"4/15/2022, 12:10:29 AM",hc3vbqkqkpoh4ff6y738,0.0-8.0,pilot_prolific_inform_memory,39,woman,101,1.0,white,50R,U,2823.0,"['../stimuli/version1_gray_lm/id054_00C_D.png', '../stimuli/version1_gray_lm/id101_50R_U.png', '../stimuli/version1_gray_lm/id054_25L_C.png']",129062.0,0.0,15.0,3.0,encoding,woman,054,"[0, 2]",white,"['00C', '25L']","['D', 'C']",,"{'muct_id': '281', 'lighting': 't', 'race_guess': 'w', 'gender_guess': 'w', 'quality': '3', 'quality_eyes': '3', 'quality_mouth': '3', 'quality_ears': '3', 'quality_hair': '3', 'quality_neck': '3', 'facial_hair': '0.0', 'notes': None, 'race_common': 'white', 'gender_common': 'woman'}","{'muct_id': '80', 'lighting': 's', 'race_guess': 'b', 'gender_guess': 'w', 'quality': '3', 'quality_eyes': '3', 'quality_mouth': '3', 'quality_ears': '3', 'quality_hair': '3', 'quality_neck': '3', 'facial_hair': '0.0', 'notes': 'earrings', 'race_common': 'white', 'gender_common': 'woman'}",,,,,,,,,,,,,,,,,,,,,,,,,,,,,,,,,,,,,,,,,,,,,,6258efa7c0091b19e2d31b64,6258ed6a796ee239fc08fb8e,61130a12d87efcd777a39fe7
1985,6258f038410f6008cca53b08,Chrome,1.0,main_task,1.0,1.0,chris,"4/15/2022, 12:10:33 AM",hc3vbqkqkpoh4ff6y738,0.0-10.0,pilot_prolific_inform_memory,37,man,100,0.0,white,50R,C,3333.0,"['../stimuli/version1_gray_lm/id100_50R_C.png', '../stimuli/version1_gray_lm/id047_25L_D.png', '../stimuli/version1_gray_lm/id047_00C_U.png']",133085.0,0.0,17.0,4.0,encoding,man,047,"[1, 2]",white,"['25L', '00C']","['D', 'U']",,"{'muct_id': '280', 'lighting': 'u', 'race_guess': 'w', 'gender_guess': 'm', 'quality': '3', 'quality_eyes': '3', 'quality_mouth': '3', 'quality_ears': '3', 'quality_hair': '3', 'quality_neck': '3', 'facial_hair': '0.0', 'notes': None, 'race_common': 'white', 'gender_common': 'man'}","{'muct_id': '64', 'lighting': 'q', 'race_guess': 'w', 'gender_guess': 'm', 'quality': '3', 'quality_eyes': '3', 'quality_mouth': '3', 'quality_ears': '3', 'quality_hair': '3', 'quality_neck': '3', 'facial_hair': '0.0', 'notes': None, 'race_common': 'white', 'gender_common': 'man'}",,,,,,,,,,,,,,,,,,,,,,,,,,,,,,,,,,,,,,,,,,,,,,6258efa7c0091b19e2d31b64,6258ed6a796ee239fc08fb8e,61130a12d87efcd777a39fe7
1986,6258f03d410f6008cca53b09,Chrome,2.0,main_task,1.0,2.0,chris,"4/15/2022, 12:10:38 AM",hc3vbqkqkpoh4ff6y738,0.0-12.0,pilot_prolific_inform_memory,39,woman,111,1.0,black,50R,C,4348.0,"['../stimuli/version1_gray_lm/id140_25L_D.png', '../stimuli/version1_gray_lm/id111_50R_C.png', '../stimuli/version1_gray_lm/id140_00C_U.png']",138029.0,0.0,19.0,5.0,encoding,woman,140,"[0, 2]",black,"['25L', '00C']","['D', 'U']",,"{'muct_id': '405', 'lighting': 'w', 'race_guess': 'b', 'gender_guess': 'w', 'quality': '3', 'quality_eyes': '3', 'quality_mouth': '3', 'quality_ears': '3', 'quality_hair': '3', 'quality_neck': '3', 'facial_hair': '0.0', 'notes': 'hair earrings', 'race_common': 'black', 'gender_common': 'woman'}","{'muct_id': '624', 'lighting': 'y', 'race_guess': 'b', 'gender_guess': 'w', 'quality': '3', 'quality_eyes': '3', 'quality_mouth': '3', 'quality_ears': '3', 'quality_hair': '3', 'quality_neck': '3', 'facial_hair': '0.0', 'notes': 'headband, earring', 'race_common': 'black', 'gender_common': 'woman'}",,,,,,,,,,,,,,,,,,,,,,,,,,,,,,,,,,,,,,,,,,,,,,6258efa7c0091b19e2d31b64,6258ed6a796ee239fc08fb8e,61130a12d87efcd777a39fe7
1987,6258f044410f6008cca53b0a,Chrome,1.0,main_task,0.0,2.0,chris,"4/15/2022, 12:10:45 AM",hc3vbqkqkpoh4ff6y738,0.0-14.0,pilot_prolific_inform_memory,37,woman,102,1.0,white,50L,U,6342.0,"['../stimuli/version1_gray_lm/id017_00C_C.png', '../stimuli/version1_gray_lm/id102_50L_U.png', '../stimuli/version1_gray_lm/id017_50R_D.png']",145158.0,0.0,21.0,6.0,encoding,woman,017,"[0, 2]",white,"['00C', '50R']","['C', 'D']",,"{'muct_id': '283', 'lighting': 't', 'race_guess': 'i', 'gender_guess': 'w', 'quality': '3', 'quality_eyes': '3', 'quality_mouth': '3', 'quality_ears': '3', 'quality_hair': '3', 'quality_neck': '3', 'facial_hair': '0.0', 'notes': 'pottu', 'race_common': 'white', 'gender_common': 'woman'}","{'muct_id': '19', 'lighting': 'r', 'race_guess': 'w', 'gender_guess': 'w', 'quality': '3', 'quality_eyes': '3', 'quality_mouth': '3', 'quality_ears': '3', 'quality_hair': '3', 'quality_neck': '3', 'facial_hair': '0.0', 'notes': None, 'race_common': 'white', 'gender_common': 'woman'}",,,,,,,,,,,,,,,,,,,,,,,,,,,,,,,,,,,,,,,,,,,,,,6258efa7c0091b19e2d31b64,6258ed6a796ee239fc08fb8e,61130a12d87efcd777a39fe7
1988,6258f049410f6008cca53b0b,Chrome,1.0,main_task,0.0,2.0,chris,"4/15/2022, 12:10:50 AM",hc3vbqkqkpoh4ff6y738,0.0-16.0,pilot_prolific_inform_memory,37,man,104,1.0,white,25L,U,4345.0,"['../stimuli/version1_gray_lm/id089_25R_C.png', '../stimuli/version1_gray_lm/id104_25L_U.png', '../stimuli/version1_gray_lm/id089_00C_D.png']",149990.0,0.0,23.0,7.0,encoding,man,089,"[0, 2]",white,"['25R', '00C']","['C', 'D']",,"{'muct_id': '287', 'lighting': 't', 'race_guess': 'w', 'gender_guess': 'm', 'quality': '3', 'quality_eyes': '3', 'quality_mouth': '3', 'quality_ears': '3', 'quality_hair': '3', 'quality_neck': '3', 'facial_hair': '2.0', 'notes': None, 'race_common': 'white', 'gender_common': 'man'}","{'muct_id': '255', 'lighting': 't', 'race_guess': 'w', 'gender_guess': 'm', 'quality': '3', 'quality_eyes': '3', 'quality_mouth': '3', 'quality_ears': '3', 'quality_hair': '3', 'quality_neck': '3', 'facial_hair': '2.0', 'notes': None, 'race_common': 'white', 'gender_common': 'man'}",,,,,,,,,,,,,,,,,,,,,,,,,,,,,,,,,,,,,,,,,,,,,,6258efa7c0091b19e2d31b64,6258ed6a796ee239fc08fb8e,61130a12d87efcd777a39fe7
1989,6258f04f410f6008cca53b0c,Chrome,2.0,main_task,1.0,2.0,chris,"4/15/2022, 12:10:56 AM",hc3vbqkqkpoh4ff6y738,0.0-18.0,pilot_prolific_inform_memory,39,man,112,1.0,black,25R,D,5521.0,"['../stimuli/version1_gray_lm/id056_00C_C.png', '../stimuli/version1_gray_lm/id112_25R_D.png', '../stimuli/version1_gray_lm/id056_25L_U.png']",156177.0,0.0,25.0,8.0,encoding,man,056,"[0, 2]",black,"['00C', '25L']","['C', 'U']",,"{'muct_id': '406', 'lighting': 'w', 'race_guess': 'b', 'gender_guess': 'm', 'quality': '3', 'quality_eyes': '3', 'quality_mouth': '3', 'quality_ears': '3', 'quality_hair': '3', 'quality_neck': '3', 'facial_hair': '1.0', 'notes': None, 'race_common': 'black', 'gender_common': 'man'}","{'muct_id': '82', 'lighting': 'q', 'race_guess': 'b', 'gender_guess': 'm', 'quality': '3', 'quality_eyes': '3', 'quality_mouth': '3', 'quality_ears': '3', 'quality_hair': '3', 'quality_neck': '3', 'facial_hair': '1.0', 'notes': None, 'race_common': 'black', 'gender_common': 'man'}",,,,,,,,,,,,,,,,,,,,,,,,,,,,,,,,,,,,,,,,,,,,,,6258efa7c0091b19e2d31b64,6258ed6a796ee239fc08fb8e,61130a12d87efcd777a39fe7
1990,6258f051410f6008cca53b0d,Chrome,2.0,main_task,1.0,2.0,chris,"4/15/2022, 12:10:58 AM",hc3vbqkqkpoh4ff6y738,0.0-20.0,pilot_prolific_inform_memory,39,man,117,1.0,black,50R,D,2149.0,"['../stimuli/version1_gray_lm/id086_25L_C.png', '../stimuli/version1_gray_lm/id117_50R_D.png', '../stimuli/version1_gray_lm/id086_00C_U.png']",158849.0,0.0,27.0,9.0,encoding,man,086,"[0, 2]",black,"['25L', '00C']","['C', 'U']",,"{'muct_id': '417', 'lighting': 'w', 'race_guess': 'b', 'gender_guess': 'm', 'quality': '3', 'quality_eyes': '3', 'quality_mouth': '3', 'quality_ears': '3', 'quality_hair': '3', 'quality_neck': '3', 'facial_hair': '1.0', 'notes': 'mouth', 'race_common': 'black', 'gender_common': 'man'}","{'muct_id': '250', 'lighting': 't', 'race_guess': 'b', 'gender_guess': 'm', 'quality': '3', 'quality_eyes': '3', 'quality_mouth': '3', 'quality_ears': '3', 'quality_hair': '3', 'quality_neck': '3', 'facial_hair': '1.0', 'notes': None, 'race_common': 'black', 'gender_common': 'man'}",,,,,,,,,,,,,,,,,,,,,,,,,,,,,,,,,,,,,,,,,,,,,,6258efa7c0091b19e2d31b64,6258ed6a796ee239fc08fb8e,61130a12d87efcd777a39fe7
1991,6258f056410f6008cca53b0e,Chrome,2.0,main_task,1.0,2.0,chris,"4/15/2022, 12:11:03 AM",hc3vbqkqkpoh4ff6y738,0.0-22.0,pilot_prolific_inform_memory,39,woman,109,1.0,white,50L,D,3826.0,"['../stimuli/version1_gray_lm/id084_00C_C.png', '../stimuli/version1_gray_lm/id109_50L_D.png', '../stimuli/version1_gray_lm/id084_25R_U.png']",163137.0,0.0,29.0,10.0,encoding,woman,084,"[0, 2]",white,"['00C', '25R']","['C', 'U']",,"{'muct_id': '401', 'lighting': 'w', 'race_guess': 'w', 'gender_guess': 'w', 'quality': '3', 'quality_eyes': '3', 'quality_mouth': '3', 'quality_ears': '3', 'quality_hair': '3', 'quality_neck': '3', 'facial_hair': '0.0', 'notes': 'mouth', 'race_common': 'white', 'gender_common': 'woman'}","{'muct_id': '248', 'lighting': 'u', 'race_guess': 'w', 'gender_guess': 'w', 'quality': '3', 'quality_eyes': '3', 'quality_mouth': '3', 'quality_ears': '3', 'quality_hair': '3', 'quality_neck': '3', 'facial_hair': '0.0', 'notes': None, 'race_common': 'white', 'gender_common': 'woman'}",,,,,,,,,,,,,,,,,,,,,,,,,,,,,,,,,,,,,,,,,,,,,,6258efa7c0091b19e2d31b64,6258ed6a796ee239fc08fb8e,61130a12d87efcd777a39fe7
1992,6258f058410f6008cca53b0f,Chrome,2.0,main_task,1.0,2.0,chris,"4/15/2022, 12:11:05 AM",hc3vbqkqkpoh4ff6y738,0.0-24.0,pilot_prolific_inform_memory,39,woman,114,1.0,white,25R,D,1872.0,"['../stimuli/version1_gray_lm/id003_00C_U.png', '../stimuli/version1_gray_lm/id114_25R_D.png', '../stimuli/version1_gray_lm/id003_50L_C.png']",165609.0,0.0,31.0,11.0,encoding,woman,003,"[0, 2]",white,"['00C', '50L']","['U', 'C']",,"{'muct_id': '410', 'lighting': 'w', 'race_guess': 'w', 'gender_guess': 'w', 'quality': '3', 'quality_eyes': '3', 'quality_mouth': '3', 'quality_ears': '3', 'quality_hair': '3', 'quality_neck': '3', 'facial_hair': '0.0', 'notes': 'makeup mouth', 'race_common': 'white', 'gender_common': 'woman'}","{'muct_id': '3', 'lighting': 's', 'race_guess': 'i', 'gender_guess': 'w', 'quality': '2', 'quality_eyes': '3', 'quality_mouth': '3', 'quality_ears': '3', 'quality_hair': '2', 'quality_neck': '3', 'facial_hair': '0.0', 'notes': 'hair', 'race_common': 'white', 'gender_common': 'woman'}",,,,,,,,,,,,,,,,,,,,,,,,,,,,,,,,,,,,,,,,,,,,,,6258efa7c0091b19e2d31b64,6258ed6a796ee239fc08fb8e,61130a12d87efcd777a39fe7
1993,6258f05c410f6008cca53b10,Chrome,2.0,main_task,1.0,2.0,chris,"4/15/2022, 12:11:09 AM",hc3vbqkqkpoh4ff6y738,0.0-26.0,pilot_prolific_inform_memory,39,man,113,1.0,black,00C,U,3644.0,"['../stimuli/version1_gray_lm/id040_50L_C.png', '../stimuli/version1_gray_lm/id113_00C_U.png', '../stimuli/version1_gray_lm/id040_25R_D.png']",169701.0,0.0,33.0,12.0,encoding,man,040,"[0, 2]",black,"['50L', '25R']","['C', 'D']",,"{'muct_id': '407', 'lighting': 'x', 'race_guess': 'u', 'gender_guess': 'm', 'quality': '3', 'quality_eyes': '3', 'quality_mouth': '3', 'quality_ears': '3', 'quality_hair': '3', 'quality_neck': '3', 'facial_hair': '3.0', 'notes': 'beard', 'race_common': 'black', 'gender_common': 'man'}","{'muct_id': '55', 'lighting': 'r', 'race_guess': 'b', 'gender_guess': 'm', 'quality': '3', 'quality_eyes': '3', 'quality_mouth': '3', 'quality_ears': '3', 'quality_hair': '3', 'quality_neck': '3', 'facial_hair': '3.0', 'notes': 'beard', 'race_common': 'black', 'gender_common': 'man'}",,,,,,,,,,,,,,,,,,,,,,,,,,,,,,,,,,,,,,,,,,,,,,6258efa7c0091b19e2d31b64,6258ed6a796ee239fc08fb8e,61130a12d87efcd777a39fe7
1994,6258f063410f6008cca53b11,Chrome,1.0,main_task,0.0,2.0,chris,"4/15/2022, 12:11:16 AM",hc3vbqkqkpoh4ff6y738,0.0-28.0,pilot_prolific_inform_memory,37,man,119,1.0,black,25L,C,6392.0,"['../stimuli/version1_gray_lm/id030_00C_D.png', '../stimuli/version1_gray_lm/id119_25L_C.png', '../stimuli/version1_gray_lm/id030_50R_U.png']",176684.0,0.0,35.0,13.0,encoding,man,030,"[0, 2]",black,"['00C', '50R']","['D', 'U']",,"{'muct_id': '420', 'lighting': 'w', 'race_guess': 'b', 'gender_guess': 'm', 'quality': '3', 'quality_eyes': '3', 'quality_mouth': '3', 'quality_ears': '3', 'quality_hair': '3', 'quality_neck': '3', 'facial_hair': '0.0', 'notes': None, 'race_common': 'black', 'gender_common': 'man'}","{'muct_id': '41', 'lighting': 'r', 'race_guess': 'b', 'gender_guess': 'm', 'quality': '3', 'quality_eyes': '3', 'quality_mouth': '3', 'quality_ears': '3', 'quality_hair': '3', 'quality_neck': '3', 'facial_hair': '0.0', 'notes': None, 'race_common': 'black', 'gender_common': 'man'}",,,,,,,,,,,,,,,,,,,,,,,,,,,,,,,,,,,,,,,,,,,,,,6258efa7c0091b19e2d31b64,6258ed6a796ee239fc08fb8e,61130a12d87efcd777a39fe7
1995,6258f06b410f6008cca53b12,Chrome,3.0,main_task,1.0,3.0,chris,"4/15/2022, 12:11:24 AM",hc3vbqkqkpoh4ff6y738,0.0-30.0,pilot_prolific_inform_memory,40,man,115,2.0,white,50L,C,7382.0,"['../stimuli/version1_gray_lm/id080_00C_D.png', '../stimuli/version1_gray_lm/id080_50R_U.png', '../stimuli/version1_gray_lm/id115_50L_C.png']",184770.0,0.0,37.0,14.0,encoding,man,080,"[0, 1]",white,"['00C', '50R']","['D', 'U']",,"{'muct_id': '412', 'lighting': 'x', 'race_guess': 'w', 'gender_guess': 'm', 'quality': '3', 'quality_eyes': '3', 'quality_mouth': '3', 'quality_ears': '3', 'quality_hair': '3', 'quality_neck': '3', 'facial_hair': '0.0', 'notes': None, 'race_common': 'white', 'gender_common': 'man'}","{'muct_id': '240', 'lighting': 'u', 'race_guess': 'w', 'gender_guess': 'm', 'quality': '3', 'quality_eyes': '3', 'quality_mouth': '3', 'quality_ears': '3', 'quality_hair': '3', 'quality_neck': '3', 'facial_hair': '0.0', 'notes': 'mouth', 'race_common': 'white', 'gender_common': 'man'}",,,,,,,,,,,,,,,,,,,,,,,,,,,,,,,,,,,,,,,,,,,,,,6258efa7c0091b19e2d31b64,6258ed6a796ee239fc08fb8e,61130a12d87efcd777a39fe7
1996,6258f06f410f6008cca53b13,Chrome,2.0,main_task,1.0,2.0,chris,"4/15/2022, 12:11:28 AM",hc3vbqkqkpoh4ff6y738,0.0-32.0,pilot_prolific_inform_memory,39,man,118,1.0,black,50L,U,2707.0,"['../stimuli/version1_gray_lm/id090_25R_C.png', '../stimuli/version1_gray_lm/id118_50L_U.png', '../stimuli/version1_gray_lm/id090_00C_D.png']",188058.0,0.0,39.0,15.0,encoding,man,090,"[0, 2]",black,"['25R', '00C']","['C', 'D']",,"{'muct_id': '419', 'lighting': 'x', 'race_guess': 'b', 'gender_guess': 'm', 'quality': '3', 'quality_eyes': '3', 'quality_mouth': '3', 'quality_ears': '3', 'quality_hair': '3', 'quality_neck': '3', 'facial_hair': '1.0', 'notes': None, 'race_common': 'black', 'gender_common': 'man'}","{'muct_id': '259', 'lighting': 'v', 'race_guess': 'b', 'gender_guess': 'm', 'quality': '3', 'quality_eyes': '3', 'quality_mouth': '3', 'quality_ears': '3', 'quality_hair': '3', 'quality_neck': '3', 'facial_hair': '2.0', 'notes': None, 'race_common': 'black', 'gender_common': 'man'}",,,,,,,,,,,,,,,,,,,,,,,,,,,,,,,,,,,,,,,,,,,,,,6258efa7c0091b19e2d31b64,6258ed6a796ee239fc08fb8e,61130a12d87efcd777a39fe7
1997,6258f072410f6008cca53b14,Chrome,2.0,main_task,1.0,2.0,chris,"4/15/2022, 12:11:31 AM",hc3vbqkqkpoh4ff6y738,0.0-34.0,pilot_prolific_inform_memory,39,man,116,1.0,white,50R,U,2611.0,"['../stimuli/version1_gray_lm/id156_50L_D.png', '../stimuli/version1_gray_lm/id116_50R_U.png', '../stimuli/version1_gray_lm/id156_00C_C.png']",191274.0,0.0,41.0,16.0,encoding,man,156,"[0, 2]",white,"['50L', '00C']","['D', 'C']",,"{'muct_id': '414', 'lighting': 'w', 'race_guess': 'w', 'gender_guess': 'm', 'quality': '3', 'quality_eyes': '3', 'quality_mouth': '3', 'quality_ears': '3', 'quality_hair': '3', 'quality_neck': '3', 'facial_hair': '0.0', 'notes': None, 'race_common': 'white', 'gender_common': 'man'}","{'muct_id': '258', 'lighting': 'u', 'race_guess': 'w', 'gender_guess': 'm', 'quality': '2', 'quality_eyes': '3', 'quality_mouth': '3', 'quality_ears': '3', 'quality_hair': '2', 'quality_neck': '3', 'facial_hair': '0.0', 'notes': 'hair', 'race_common': 'white', 'gender_common': 'man'}",,,,,,,,,,,,,,,,,,,,,,,,,,,,,,,,,,,,,,,,,,,,,,6258efa7c0091b19e2d31b64,6258ed6a796ee239fc08fb8e,61130a12d87efcd777a39fe7
1998,6258f075410f6008cca53b15,Chrome,2.0,main_task,1.0,2.0,chris,"4/15/2022, 12:11:34 AM",hc3vbqkqkpoh4ff6y738,0.0-36.0,pilot_prolific_inform_memory,39,woman,125,1.0,white,50R,D,2276.0,"['../stimuli/version1_gray_lm/id031_00C_U.png', '../stimuli/version1_gray_lm/id125_50R_D.png', '../stimuli/version1_gray_lm/id031_50L_C.png']",194058.0,0.0,43.0,17.0,encoding,woman,031,"[0, 2]",white,"['00C', '50L']","['U', 'C']",,"{'muct_id': '433', 'lighting': 'x', 'race_guess': 'w', 'gender_guess': 'w', 'quality': '3', 'quality_eyes': '3', 'quality_mouth': '3', 'quality_ears': '3', 'quality_hair': '3', 'quality_neck': '3', 'facial_hair': '0.0', 'notes': None, 'race_common': 'white', 'gender_common': 'woman'}","{'muct_id': '42', 'lighting': 'q', 'race_guess': 'u', 'gender_guess': 'w', 'quality': '2', 'quality_eyes': '3', 'quality_mouth': '3', 'quality_ears': '2', 'quality_hair': '3', 'quality_neck': '3', 'facial_hair': '0.0', 'notes': 'mouth', 'race_common': 'white', 'gender_common': 'woman'}",,,,,,,,,,,,,,,,,,,,,,,,,,,,,,,,,,,,,,,,,,,,,,6258efa7c0091b19e2d31b64,6258ed6a796ee239fc08fb8e,61130a12d87efcd777a39fe7
1999,6258f079410f6008cca53b16,Chrome,3.0,main_task,0.0,2.0,chris,"4/15/2022, 12:11:38 AM",hc3vbqkqkpoh4ff6y738,0.0-38.0,pilot_prolific_inform_memory,40,man,121,1.0,black,50L,C,3809.0,"['../stimuli/version1_gray_lm/id064_00C_U.png', '../stimuli/version1_gray_lm/id121_50L_C.png', '../stimuli/version1_gray_lm/id064_50R_D.png']",198305.0,0.0,45.0,18.0,encoding,man,064,"[0, 2]",black,"['00C', '50R']","['U', 'D']",,"{'muct_id': '423', 'lighting': 'w', 'race_guess': 'b', 'gender_guess': 'm', 'quality': '3', 'quality_eyes': '3', 'quality_mouth': '3', 'quality_ears': '3', 'quality_hair': '3', 'quality_neck': '3', 'facial_hair': '1.0', 'notes': None, 'race_common': 'black', 'gender_common': 'man'}","{'muct_id': '204', 'lighting': 't', 'race_guess': 'b', 'gender_guess': 'm', 'quality': '3', 'quality_eyes': '3', 'quality_mouth': '3', 'quality_ears': '3', 'quality_hair': '3', 'quality_neck': '3', 'facial_hair': '1.0', 'notes': None, 'race_common': 'black', 'gender_common': 'man'}",,,,,,,,,,,,,,,,,,,,,,,,,,,,,,,,,,,,,,,,,,,,,,6258efa7c0091b19e2d31b64,6258ed6a796ee239fc08fb8e,61130a12d87efcd777a39fe7
2000,6258f07b410f6008cca53b17,Chrome,2.0,main_task,1.0,2.0,chris,"4/15/2022, 12:11:40 AM",hc3vbqkqkpoh4ff6y738,0.0-40.0,pilot_prolific_inform_memory,39,woman,123,1.0,white,25R,D,2108.0,"['../stimuli/version1_gray_lm/id029_25L_C.png', '../stimuli/version1_gray_lm/id123_25R_D.png', '../stimuli/version1_gray_lm/id029_00C_U.png']",200811.0,0.0,47.0,19.0,encoding,woman,029,"[0, 2]",white,"['25L', '00C']","['C', 'U']",,"{'muct_id': '76', 'lighting': 'q', 'race_guess': 'w', 'gender_guess': 'w', 'quality': '2', 'quality_eyes': '2', 'quality_mouth': '3', 'quality_ears': '2', 'quality_hair': '2', 'quality_neck': '3', 'facial_hair': '0.0', 'notes': 'hair', 'race_common': 'white', 'gender_common': 'woman'}","{'muct_id': '39', 'lighting': 'r', 'race_guess': 'w', 'gender_guess': 'w', 'quality': '3', 'quality_eyes': '3', 'quality_mouth': '3', 'quality_ears': '3', 'quality_hair': '3', 'quality_neck': '3', 'facial_hair': '0.0', 'notes': 'earrings hair', 'race_common': 'white', 'gender_common': 'woman'}",,,,,,,,,,,,,,,,,,,,,,,,,,,,,,,,,,,,,,,,,,,,,,6258efa7c0091b19e2d31b64,6258ed6a796ee239fc08fb8e,61130a12d87efcd777a39fe7
2001,6258f07d410f6008cca53b18,Chrome,2.0,main_task,1.0,2.0,chris,"4/15/2022, 12:11:42 AM",hc3vbqkqkpoh4ff6y738,0.0-42.0,pilot_prolific_inform_memory,39,woman,120,1.0,black,00C,D,1440.0,"['../stimuli/version1_gray_lm/id068_25R_U.png', '../stimuli/version1_gray_lm/id120_00C_D.png', '../stimuli/version1_gray_lm/id068_25L_C.png']",202780.0,0.0,49.0,20.0,encoding,woman,068,"[0, 2]",black,"['25R', '25L']","['U', 'C']",,"{'muct_id': '421', 'lighting': 'x', 'race_guess': 'b', 'gender_guess': 'w', 'quality': '3', 'quality_eyes': '3', 'quality_mouth': '3', 'quality_ears': '3', 'quality_hair': '3', 'quality_neck': '3', 'facial_hair': '0.0', 'notes': None, 'race_common': 'black', 'gender_common': 'woman'}","{'muct_id': '213', 'lighting': 'u', 'race_guess': 'b', 'gender_guess': 'w', 'quality': '3', 'quality_eyes': '3', 'quality_mouth': '3', 'quality_ears': '3', 'quality_hair': '3', 'quality_neck': '3', 'facial_hair': '0.0', 'notes': None, 'race_common': 'black', 'gender_common': 'woman'}",,,,,,,,,,,,,,,,,,,,,,,,,,,,,,,,,,,,,,,,,,,,,,6258efa7c0091b19e2d31b64,6258ed6a796ee239fc08fb8e,61130a12d87efcd777a39fe7
2002,6258f084410f6008cca53b19,Chrome,2.0,main_task,1.0,2.0,chris,"4/15/2022, 12:11:49 AM",hc3vbqkqkpoh4ff6y738,0.0-44.0,pilot_prolific_inform_memory,39,man,143,1.0,white,50L,D,6869.0,"['../stimuli/version1_gray_lm/id063_25R_C.png', '../stimuli/version1_gray_lm/id143_50L_D.png', '../stimuli/version1_gray_lm/id063_00C_U.png']",209935.0,0.0,51.0,21.0,encoding,man,063,"[0, 2]",white,"['25R', '00C']","['C', 'U']",,"{'muct_id': '90', 'lighting': 'q', 'race_guess': 'u', 'gender_guess': 'm', 'quality': '2', 'quality_eyes': '3', 'quality_mouth': '3', 'quality_ears': '2', 'quality_hair': '3', 'quality_neck': '3', 'facial_hair': '4.0', 'notes': 'beard', 'race_common': 'white', 'gender_common': 'man'}","{'muct_id': '203', 'lighting': 'u', 'race_guess': 'i', 'gender_guess': 'm', 'quality': '2', 'quality_eyes': '2', 'quality_mouth': '3', 'quality_ears': '3', 'quality_hair': '3', 'quality_neck': '3', 'facial_hair': '2.0', 'notes': 'mouth', 'race_common': 'white', 'gender_common': 'man'}",,,,,,,,,,,,,,,,,,,,,,,,,,,,,,,,,,,,,,,,,,,,,,6258efa7c0091b19e2d31b64,6258ed6a796ee239fc08fb8e,61130a12d87efcd777a39fe7
2003,6258f08b410f6008cca53b1a,Chrome,1.0,main_task,0.0,2.0,chris,"4/15/2022, 12:11:56 AM",hc3vbqkqkpoh4ff6y738,0.0-46.0,pilot_prolific_inform_memory,37,man,124,1.0,black,25L,D,5802.0,"['../stimuli/version1_gray_lm/id055_00C_C.png', '../stimuli/version1_gray_lm/id124_25L_D.png', '../stimuli/version1_gray_lm/id055_50R_U.png']",216103.0,0.0,53.0,22.0,encoding,man,055,"[0, 2]",black,"['00C', '50R']","['C', 'U']",,"{'muct_id': '431', 'lighting': 'x', 'race_guess': 'b', 'gender_guess': 'u', 'quality': '3', 'quality_eyes': '3', 'quality_mouth': '3', 'quality_ears': '3', 'quality_hair': '3', 'quality_neck': '3', 'facial_hair': '0.0', 'notes': 'mouth', 'race_common': 'black', 'gender_common': 'man'}","{'muct_id': '81', 'lighting': 'q', 'race_guess': 'b', 'gender_guess': 'm', 'quality': '3', 'quality_eyes': '3', 'quality_mouth': '3', 'quality_ears': '3', 'quality_hair': '3', 'quality_neck': '3', 'facial_hair': '0.0', 'notes': None, 'race_common': 'black', 'gender_common': 'man'}",,,,,,,,,,,,,,,,,,,,,,,,,,,,,,,,,,,,,,,,,,,,,,6258efa7c0091b19e2d31b64,6258ed6a796ee239fc08fb8e,61130a12d87efcd777a39fe7
2004,6258f08f410f6008cca53b1b,Chrome,2.0,main_task,1.0,2.0,chris,"4/15/2022, 12:12:00 AM",hc3vbqkqkpoh4ff6y738,0.0-48.0,pilot_prolific_inform_memory,39,woman,141,1.0,white,50R,C,3241.0,"['../stimuli/version1_gray_lm/id051_50L_U.png', '../stimuli/version1_gray_lm/id141_50R_C.png', '../stimuli/version1_gray_lm/id051_00C_D.png']",219993.0,0.0,55.0,23.0,encoding,woman,051,"[0, 2]",white,"['50L', '00C']","['U', 'D']",,"{'muct_id': '77', 'lighting': 's', 'race_guess': 'w', 'gender_guess': 'w', 'quality': '3', 'quality_eyes': '3', 'quality_mouth': '3', 'quality_ears': '3', 'quality_hair': '3', 'quality_neck': '3', 'facial_hair': '0.0', 'notes': None, 'race_common': 'white', 'gender_common': 'woman'}","{'muct_id': '74', 'lighting': 'q', 'race_guess': 'w', 'gender_guess': 'w', 'quality': '3', 'quality_eyes': '3', 'quality_mouth': '3', 'quality_ears': '3', 'quality_hair': '3', 'quality_neck': '3', 'facial_hair': '0.0', 'notes': None, 'race_common': 'white', 'gender_common': 'woman'}",,,,,,,,,,,,,,,,,,,,,,,,,,,,,,,,,,,,,,,,,,,,,,6258efa7c0091b19e2d31b64,6258ed6a796ee239fc08fb8e,61130a12d87efcd777a39fe7
2005,6258f092410f6008cca53b1c,Chrome,3.0,main_task,1.0,3.0,chris,"4/15/2022, 12:12:03 AM",hc3vbqkqkpoh4ff6y738,0.0-50.0,pilot_prolific_inform_memory,40,man,122,2.0,black,00C,C,3300.0,"['../stimuli/version1_gray_lm/id021_25L_D.png', '../stimuli/version1_gray_lm/id021_25R_U.png', '../stimuli/version1_gray_lm/id122_00C_C.png']",223855.0,0.0,57.0,24.0,encoding,man,021,"[0, 1]",black,"['25L', '25R']","['D', 'U']",,"{'muct_id': '425', 'lighting': 'x', 'race_guess': 'b', 'gender_guess': 'm', 'quality': '3', 'quality_eyes': '3', 'quality_mouth': '3', 'quality_ears': '3', 'quality_hair': '3', 'quality_neck': '3', 'facial_hair': '2.0', 'notes': None, 'race_common': 'black', 'gender_common': 'man'}","{'muct_id': '25', 'lighting': 'r', 'race_guess': 'b', 'gender_guess': 'm', 'quality': '3', 'quality_eyes': '3', 'quality_mouth': '3', 'quality_ears': '3', 'quality_hair': '3', 'quality_neck': '3', 'facial_hair': '2.0', 'notes': None, 'race_common': 'black', 'gender_common': 'man'}",,,,,,,,,,,,,,,,,,,,,,,,,,,,,,,,,,,,,,,,,,,,,,6258efa7c0091b19e2d31b64,6258ed6a796ee239fc08fb8e,61130a12d87efcd777a39fe7
2006,6258f096410f6008cca53b1d,Chrome,3.0,main_task,1.0,3.0,chris,"4/15/2022, 12:12:07 AM",hc3vbqkqkpoh4ff6y738,0.0-52.0,pilot_prolific_inform_memory,40,woman,127,2.0,black,50L,D,3035.0,"['../stimuli/version1_gray_lm/id142_00C_U.png', '../stimuli/version1_gray_lm/id142_25R_C.png', '../stimuli/version1_gray_lm/id127_50L_D.png']",227463.0,0.0,59.0,25.0,encoding,woman,142,"[0, 1]",black,"['00C', '25R']","['U', 'C']",,"{'muct_id': '435', 'lighting': 'x', 'race_guess': 'b', 'gender_guess': 'w', 'quality': '3', 'quality_eyes': '3', 'quality_mouth': '3', 'quality_ears': '3', 'quality_hair': '3', 'quality_neck': '3', 'facial_hair': '0.0', 'notes': 'bandana', 'race_common': 'black', 'gender_common': 'woman'}","{'muct_id': '87', 'lighting': 'r', 'race_guess': 'b', 'gender_guess': 'w', 'quality': '3', 'quality_eyes': '3', 'quality_mouth': '3', 'quality_ears': '3', 'quality_hair': '3', 'quality_neck': '3', 'facial_hair': '0.0', 'notes': 'earrings hair', 'race_common': 'black', 'gender_common': 'woman'}",,,,,,,,,,,,,,,,,,,,,,,,,,,,,,,,,,,,,,,,,,,,,,6258efa7c0091b19e2d31b64,6258ed6a796ee239fc08fb8e,61130a12d87efcd777a39fe7
2007,6258f099410f6008cca53b1e,Chrome,2.0,main_task,0.0,1.0,chris,"4/15/2022, 12:12:10 AM",hc3vbqkqkpoh4ff6y738,0.0-54.0,pilot_prolific_inform_memory,39,woman,126,0.0,black,25R,C,2050.0,"['../stimuli/version1_gray_lm/id126_25R_C.png', '../stimuli/version1_gray_lm/id016_00C_U.png', '../stimuli/version1_gray_lm/id016_50L_D.png']",230043.0,0.0,61.0,26.0,encoding,woman,016,"[1, 2]",black,"['00C', '50L']","['U', 'D']",,"{'muct_id': '434', 'lighting': 'w', 'race_guess': 'b', 'gender_guess': 'w', 'quality': '3', 'quality_eyes': '3', 'quality_mouth': '3', 'quality_ears': '3', 'quality_hair': '3', 'quality_neck': '3', 'facial_hair': '0.0', 'notes': 'earrings', 'race_common': 'black', 'gender_common': 'woman'}","{'muct_id': '18', 'lighting': 'q', 'race_guess': 'b', 'gender_guess': 'w', 'quality': '3', 'quality_eyes': '3', 'quality_mouth': '3', 'quality_ears': '3', 'quality_hair': '3', 'quality_neck': '3', 'facial_hair': '0.0', 'notes': 'earrings', 'race_common': 'black', 'gender_common': 'woman'}",,,,,,,,,,,,,,,,,,,,,,,,,,,,,,,,,,,,,,,,,,,,,,6258efa7c0091b19e2d31b64,6258ed6a796ee239fc08fb8e,61130a12d87efcd777a39fe7
2008,6258f09d410f6008cca53b1f,Chrome,1.0,main_task,1.0,1.0,chris,"4/15/2022, 12:12:14 AM",hc3vbqkqkpoh4ff6y738,0.0-56.0,pilot_prolific_inform_memory,37,man,146,0.0,white,00C,D,3864.0,"['../stimuli/version1_gray_lm/id146_00C_D.png', '../stimuli/version1_gray_lm/id049_50L_U.png', '../stimuli/version1_gray_lm/id049_50R_C.png']",234386.0,0.0,63.0,27.0,encoding,man,049,"[1, 2]",white,"['50L', '50R']","['U', 'C']",,"{'muct_id': '254', 'lighting': 'v', 'race_guess': 'w', 'gender_guess': 'm', 'quality': '2', 'quality_eyes': '2', 'quality_mouth': '3', 'quality_ears': '3', 'quality_hair': '2', 'quality_neck': '3', 'facial_hair': '0.0', 'notes': 'hair', 'race_common': 'white', 'gender_common': 'man'}","{'muct_id': '66', 'lighting': 'r', 'race_guess': 'w', 'gender_guess': 'm', 'quality': '3', 'quality_eyes': '3', 'quality_mouth': '3', 'quality_ears': '3', 'quality_hair': '3', 'quality_neck': '3', 'facial_hair': '0.0', 'notes': None, 'race_common': 'white', 'gender_common': 'man'}",,,,,,,,,,,,,,,,,,,,,,,,,,,,,,,,,,,,,,,,,,,,,,6258efa7c0091b19e2d31b64,6258ed6a796ee239fc08fb8e,61130a12d87efcd777a39fe7
2009,6258f0a2410f6008cca53b20,Chrome,2.0,main_task,1.0,2.0,chris,"4/15/2022, 12:12:19 AM",hc3vbqkqkpoh4ff6y738,0.0-58.0,pilot_prolific_inform_memory,39,man,145,1.0,white,50L,D,4549.0,"['../stimuli/version1_gray_lm/id094_00C_U.png', '../stimuli/version1_gray_lm/id145_50L_D.png', '../stimuli/version1_gray_lm/id094_50R_C.png']",239757.0,0.0,65.0,28.0,encoding,man,094,"[0, 2]",white,"['00C', '50R']","['U', 'C']",,"{'muct_id': '230', 'lighting': 'u', 'race_guess': 'w', 'gender_guess': 'm', 'quality': '3', 'quality_eyes': '3', 'quality_mouth': '3', 'quality_ears': '3', 'quality_hair': '3', 'quality_neck': '3', 'facial_hair': '0.0', 'notes': 'hair', 'race_common': 'white', 'gender_common': 'man'}","{'muct_id': '264', 'lighting': 't', 'race_guess': 'w', 'gender_guess': 'm', 'quality': '3', 'quality_eyes': '3', 'quality_mouth': '3', 'quality_ears': '3', 'quality_hair': '3', 'quality_neck': '3', 'facial_hair': '0.0', 'notes': None, 'race_common': 'white', 'gender_common': 'man'}",,,,,,,,,,,,,,,,,,,,,,,,,,,,,,,,,,,,,,,,,,,,,,6258efa7c0091b19e2d31b64,6258ed6a796ee239fc08fb8e,61130a12d87efcd777a39fe7
2010,6258f0a8410f6008cca53b21,Chrome,2.0,main_task,1.0,2.0,chris,"4/15/2022, 12:12:25 AM",hc3vbqkqkpoh4ff6y738,0.0-60.0,pilot_prolific_inform_memory,39,man,128,1.0,black,00C,C,5567.0,"['../stimuli/version1_gray_lm/id028_25L_U.png', '../stimuli/version1_gray_lm/id128_00C_C.png', '../stimuli/version1_gray_lm/id028_50R_D.png']",245918.0,0.0,67.0,29.0,encoding,man,028,"[0, 2]",black,"['25L', '50R']","['U', 'D']",,"{'muct_id': '436', 'lighting': 'w', 'race_guess': 'b', 'gender_guess': 'm', 'quality': '3', 'quality_eyes': '3', 'quality_mouth': '3', 'quality_ears': '3', 'quality_hair': '3', 'quality_neck': '3', 'facial_hair': '3.0', 'notes': 'beard', 'race_common': 'black', 'gender_common': 'man'}","{'muct_id': '38', 'lighting': 'q', 'race_guess': 'b', 'gender_guess': 'm', 'quality': '3', 'quality_eyes': '3', 'quality_mouth': '3', 'quality_ears': '3', 'quality_hair': '3', 'quality_neck': '3', 'facial_hair': '2.0', 'notes': None, 'race_common': 'black', 'gender_common': 'man'}",,,,,,,,,,,,,,,,,,,,,,,,,,,,,,,,,,,,,,,,,,,,,,6258efa7c0091b19e2d31b64,6258ed6a796ee239fc08fb8e,61130a12d87efcd777a39fe7
2011,6258f0ac410f6008cca53b22,Chrome,1.0,main_task,1.0,1.0,chris,"4/15/2022, 12:12:29 AM",hc3vbqkqkpoh4ff6y738,0.0-62.0,pilot_prolific_inform_memory,37,man,149,0.0,white,50R,C,2607.0,"['../stimuli/version1_gray_lm/id149_50R_C.png', '../stimuli/version1_gray_lm/id052_00C_U.png', '../stimuli/version1_gray_lm/id052_25L_D.png']",249090.0,0.0,69.0,30.0,encoding,man,052,"[1, 2]",white,"['00C', '25L']","['U', 'D']",,"{'muct_id': '416', 'lighting': 'w', 'race_guess': 'w', 'gender_guess': 'm', 'quality': '3', 'quality_eyes': '3', 'quality_mouth': '3', 'quality_ears': '3', 'quality_hair': '3', 'quality_neck': '3', 'facial_hair': '2.0', 'notes': None, 'race_common': 'white', 'gender_common': 'man'}","{'muct_id': '75', 'lighting': 'q', 'race_guess': 'w', 'gender_guess': 'm', 'quality': '3', 'quality_eyes': '3', 'quality_mouth': '3', 'quality_ears': '3', 'quality_hair': '3', 'quality_neck': '3', 'facial_hair': '4.0', 'notes': 'beard', 'race_common': 'white', 'gender_common': 'man'}",,,,,,,,,,,,,,,,,,,,,,,,,,,,,,,,,,,,,,,,,,,,,,6258efa7c0091b19e2d31b64,6258ed6a796ee239fc08fb8e,61130a12d87efcd777a39fe7
2012,6258f0b4410f6008cca53b23,Chrome,2.0,main_task,1.0,2.0,chris,"4/15/2022, 12:12:37 AM",hc3vbqkqkpoh4ff6y738,0.0-64.0,pilot_prolific_inform_memory,39,woman,148,1.0,white,25R,D,7919.0,"['../stimuli/version1_gray_lm/id088_00C_U.png', '../stimuli/version1_gray_lm/id148_25R_D.png', '../stimuli/version1_gray_lm/id088_50L_C.png']",257230.0,0.0,71.0,31.0,encoding,woman,088,"[0, 2]",white,"['00C', '50L']","['U', 'C']",,"{'muct_id': '415', 'lighting': 'w', 'race_guess': 'w', 'gender_guess': 'w', 'quality': '3', 'quality_eyes': '3', 'quality_mouth': '3', 'quality_ears': '3', 'quality_hair': '3', 'quality_neck': '3', 'facial_hair': '0.0', 'notes': None, 'race_common': 'white', 'gender_common': 'woman'}","{'muct_id': '252', 'lighting': 't', 'race_guess': 'w', 'gender_guess': 'w', 'quality': '3', 'quality_eyes': '3', 'quality_mouth': '3', 'quality_ears': '3', 'quality_hair': '3', 'quality_neck': '3', 'facial_hair': '0.0', 'notes': 'hair', 'race_common': 'white', 'gender_common': 'woman'}",,,,,,,,,,,,,,,,,,,,,,,,,,,,,,,,,,,,,,,,,,,,,,6258efa7c0091b19e2d31b64,6258ed6a796ee239fc08fb8e,61130a12d87efcd777a39fe7
2013,6258f0b8410f6008cca53b24,Chrome,3.0,main_task,1.0,3.0,chris,"4/15/2022, 12:12:41 AM",hc3vbqkqkpoh4ff6y738,0.0-66.0,pilot_prolific_inform_memory,40,man,132,2.0,black,00C,D,3511.0,"['../stimuli/version1_gray_lm/id058_25R_U.png', '../stimuli/version1_gray_lm/id058_25L_C.png', '../stimuli/version1_gray_lm/id132_00C_D.png']",261180.0,0.0,73.0,32.0,encoding,man,058,"[0, 1]",black,"['25R', '25L']","['U', 'C']",,"{'muct_id': '450', 'lighting': 'w', 'race_guess': 'b', 'gender_guess': 'm', 'quality': '3', 'quality_eyes': '3', 'quality_mouth': '3', 'quality_ears': '3', 'quality_hair': '3', 'quality_neck': '3', 'facial_hair': '4.0', 'notes': 'mouth', 'race_common': 'black', 'gender_common': 'man'}","{'muct_id': '84', 'lighting': 'q', 'race_guess': 'b', 'gender_guess': 'm', 'quality': '2', 'quality_eyes': '2', 'quality_mouth': '3', 'quality_ears': '3', 'quality_hair': '3', 'quality_neck': '3', 'facial_hair': '3.0', 'notes': 'beard', 'race_common': 'black', 'gender_common': 'man'}",,,,,,,,,,,,,,,,,,,,,,,,,,,,,,,,,,,,,,,,,,,,,,6258efa7c0091b19e2d31b64,6258ed6a796ee239fc08fb8e,61130a12d87efcd777a39fe7
2014,6258f0c0410f6008cca53b25,Chrome,1.0,main_task,1.0,1.0,chris,"4/15/2022, 12:12:49 AM",hc3vbqkqkpoh4ff6y738,0.0-68.0,pilot_prolific_inform_memory,37,woman,152,0.0,white,00C,C,7298.0,"['../stimuli/version1_gray_lm/id152_00C_C.png', '../stimuli/version1_gray_lm/id018_25R_U.png', '../stimuli/version1_gray_lm/id018_25L_D.png']",269016.0,0.0,75.0,33.0,encoding,woman,018,"[1, 2]",white,"['25R', '25L']","['U', 'D']",,"{'muct_id': '446', 'lighting': 'w', 'race_guess': 'w', 'gender_guess': 'w', 'quality': '3', 'quality_eyes': '3', 'quality_mouth': '3', 'quality_ears': '3', 'quality_hair': '3', 'quality_neck': '3', 'facial_hair': '0.0', 'notes': None, 'race_common': 'white', 'gender_common': 'woman'}","{'muct_id': '21', 'lighting': 'q', 'race_guess': 'w', 'gender_guess': 'w', 'quality': '3', 'quality_eyes': '3', 'quality_mouth': '3', 'quality_ears': '3', 'quality_hair': '3', 'quality_neck': '3', 'facial_hair': '0.0', 'notes': None, 'race_common': 'white', 'gender_common': 'woman'}",,,,,,,,,,,,,,,,,,,,,,,,,,,,,,,,,,,,,,,,,,,,,,6258efa7c0091b19e2d31b64,6258ed6a796ee239fc08fb8e,61130a12d87efcd777a39fe7
2015,6258f0c2410f6008cca53b26,Chrome,1.0,main_task,1.0,1.0,chris,"4/15/2022, 12:12:51 AM",hc3vbqkqkpoh4ff6y738,0.0-70.0,pilot_prolific_inform_memory,37,woman,136,0.0,black,50L,D,1851.0,"['../stimuli/version1_gray_lm/id136_50L_D.png', '../stimuli/version1_gray_lm/id144_50R_C.png', '../stimuli/version1_gray_lm/id144_00C_U.png']",271433.0,0.0,77.0,34.0,encoding,woman,144,"[1, 2]",black,"['50R', '00C']","['C', 'U']",,"{'muct_id': '616', 'lighting': 'y', 'race_guess': 'b', 'gender_guess': 'w', 'quality': '3', 'quality_eyes': '3', 'quality_mouth': '3', 'quality_ears': '3', 'quality_hair': '3', 'quality_neck': '3', 'facial_hair': '0.0', 'notes': 'earrings', 'race_common': 'black', 'gender_common': 'woman'}","{'muct_id': '214', 'lighting': 'u', 'race_guess': 'b', 'gender_guess': 'w', 'quality': '2', 'quality_eyes': '2', 'quality_mouth': '3', 'quality_ears': '3', 'quality_hair': '3', 'quality_neck': '3', 'facial_hair': '0.0', 'notes': None, 'race_common': 'black', 'gender_common': 'woman'}",,,,,,,,,,,,,,,,,,,,,,,,,,,,,,,,,,,,,,,,,,,,,,6258efa7c0091b19e2d31b64,6258ed6a796ee239fc08fb8e,61130a12d87efcd777a39fe7
2016,6258f0c7410f6008cca53b27,Chrome,1.0,main_task,1.0,1.0,chris,"4/15/2022, 12:12:56 AM",hc3vbqkqkpoh4ff6y738,0.0-72.0,pilot_prolific_inform_memory,37,woman,151,0.0,white,00C,U,4268.0,"['../stimuli/version1_gray_lm/id151_00C_U.png', '../stimuli/version1_gray_lm/id013_50L_D.png', '../stimuli/version1_gray_lm/id013_50R_C.png']",276562.0,0.0,79.0,35.0,encoding,woman,013,"[1, 2]",white,"['50L', '50R']","['D', 'C']",,"{'muct_id': '444', 'lighting': 'w', 'race_guess': 'w', 'gender_guess': 'w', 'quality': '3', 'quality_eyes': '3', 'quality_mouth': '3', 'quality_ears': '3', 'quality_hair': '3', 'quality_neck': '3', 'facial_hair': '0.0', 'notes': None, 'race_common': 'white', 'gender_common': 'woman'}","{'muct_id': '14', 'lighting': 'q', 'race_guess': 'w', 'gender_guess': 'w', 'quality': '3', 'quality_eyes': '3', 'quality_mouth': '3', 'quality_ears': '3', 'quality_hair': '3', 'quality_neck': '3', 'facial_hair': '0.0', 'notes': None, 'race_common': 'white', 'gender_common': 'woman'}",,,,,,,,,,,,,,,,,,,,,,,,,,,,,,,,,,,,,,,,,,,,,,6258efa7c0091b19e2d31b64,6258ed6a796ee239fc08fb8e,61130a12d87efcd777a39fe7
2017,6258f0ca410f6008cca53b28,Chrome,1.0,main_task,0.0,3.0,chris,"4/15/2022, 12:12:59 AM",hc3vbqkqkpoh4ff6y738,0.0-74.0,pilot_prolific_inform_memory,37,woman,133,2.0,black,00C,C,2471.0,"['../stimuli/version1_gray_lm/id005_50R_U.png', '../stimuli/version1_gray_lm/id005_25L_D.png', '../stimuli/version1_gray_lm/id133_00C_C.png']",279481.0,0.0,81.0,36.0,encoding,woman,005,"[0, 1]",black,"['50R', '25L']","['U', 'D']",,"{'muct_id': '601', 'lighting': 'y', 'race_guess': 'b', 'gender_guess': 'w', 'quality': '3', 'quality_eyes': '3', 'quality_mouth': '3', 'quality_ears': '3', 'quality_hair': '3', 'quality_neck': '3', 'facial_hair': '0.0', 'notes': 'mouth', 'race_common': 'black', 'gender_common': 'woman'}","{'muct_id': '5', 'lighting': 'q', 'race_guess': 'b', 'gender_guess': 'w', 'quality': '3', 'quality_eyes': '3', 'quality_mouth': '3', 'quality_ears': '3', 'quality_hair': '3', 'quality_neck': '3', 'facial_hair': '0.0', 'notes': 'hat', 'race_common': 'black', 'gender_common': 'woman'}",,,,,,,,,,,,,,,,,,,,,,,,,,,,,,,,,,,,,,,,,,,,,,6258efa7c0091b19e2d31b64,6258ed6a796ee239fc08fb8e,61130a12d87efcd777a39fe7
2018,6258f0cd410f6008cca53b29,Chrome,2.0,main_task,1.0,2.0,chris,"4/15/2022, 12:13:02 AM",hc3vbqkqkpoh4ff6y738,0.0-76.0,pilot_prolific_inform_memory,39,woman,155,1.0,white,25L,U,2766.0,"['../stimuli/version1_gray_lm/id007_00C_C.png', '../stimuli/version1_gray_lm/id155_25L_U.png', '../stimuli/version1_gray_lm/id007_50R_D.png']",282757.0,0.0,83.0,37.0,encoding,woman,007,"[0, 2]",white,"['00C', '50R']","['C', 'D']",,"{'muct_id': '615', 'lighting': 'z', 'race_guess': 'w', 'gender_guess': 'w', 'quality': '3', 'quality_eyes': '3', 'quality_mouth': '3', 'quality_ears': '3', 'quality_hair': '3', 'quality_neck': '3', 'facial_hair': '0.0', 'notes': 'earrings', 'race_common': 'white', 'gender_common': 'woman'}","{'muct_id': '7', 'lighting': 's', 'race_guess': 'u', 'gender_guess': 'w', 'quality': '3', 'quality_eyes': '3', 'quality_mouth': '3', 'quality_ears': '3', 'quality_hair': '3', 'quality_neck': '3', 'facial_hair': '0.0', 'notes': None, 'race_common': 'white', 'gender_common': 'woman'}",,,,,,,,,,,,,,,,,,,,,,,,,,,,,,,,,,,,,,,,,,,,,,6258efa7c0091b19e2d31b64,6258ed6a796ee239fc08fb8e,61130a12d87efcd777a39fe7
2019,6258f0d4410f6008cca53b2a,Chrome,2.0,main_task,1.0,2.0,chris,"4/15/2022, 12:13:09 AM",hc3vbqkqkpoh4ff6y738,0.0-78.0,pilot_prolific_inform_memory,39,man,137,1.0,black,00C,C,5843.0,"['../stimuli/version1_gray_lm/id083_25R_D.png', '../stimuli/version1_gray_lm/id137_00C_C.png', '../stimuli/version1_gray_lm/id083_50L_U.png']",289127.0,0.0,85.0,38.0,encoding,man,083,"[0, 2]",black,"['25R', '50L']","['D', 'U']",,"{'muct_id': '617', 'lighting': 'y', 'race_guess': 'b', 'gender_guess': 'w', 'quality': '3', 'quality_eyes': '3', 'quality_mouth': '3', 'quality_ears': '3', 'quality_hair': '3', 'quality_neck': '3', 'facial_hair': '0.0', 'notes': 'mouth', 'race_common': 'black', 'gender_common': 'man'}","{'muct_id': '243', 'lighting': 'v', 'race_guess': 'b', 'gender_guess': 'm', 'quality': '3', 'quality_eyes': '3', 'quality_mouth': '3', 'quality_ears': '3', 'quality_hair': '3', 'quality_neck': '3', 'facial_hair': '0.0', 'notes': None, 'race_common': 'black', 'gender_common': 'man'}",,,,,,,,,,,,,,,,,,,,,,,,,,,,,,,,,,,,,,,,,,,,,,6258efa7c0091b19e2d31b64,6258ed6a796ee239fc08fb8e,61130a12d87efcd777a39fe7
2020,6258f0d9410f6008cca53b2b,Chrome,2.0,main_task,1.0,2.0,chris,"4/15/2022, 12:13:14 AM",hc3vbqkqkpoh4ff6y738,0.0-80.0,pilot_prolific_inform_memory,39,woman,153,1.0,white,50R,D,4741.0,"['../stimuli/version1_gray_lm/id076_00C_C.png', '../stimuli/version1_gray_lm/id153_50R_D.png', '../stimuli/version1_gray_lm/id076_25L_U.png']",294628.0,0.0,87.0,39.0,encoding,woman,076,"[0, 2]",white,"['00C', '25L']","['C', 'U']",,"{'muct_id': '437', 'lighting': 'x', 'race_guess': 'w', 'gender_guess': 'w', 'quality': '3', 'quality_eyes': '3', 'quality_mouth': '3', 'quality_ears': '3', 'quality_hair': '3', 'quality_neck': '3', 'facial_hair': '0.0', 'notes': 'hair', 'race_common': 'white', 'gender_common': 'woman'}","{'muct_id': '233', 'lighting': 'u', 'race_guess': 'w', 'gender_guess': 'w', 'quality': '3', 'quality_eyes': '3', 'quality_mouth': '3', 'quality_ears': '3', 'quality_hair': '3', 'quality_neck': '3', 'facial_hair': '0.0', 'notes': 'earrings', 'race_common': 'white', 'gender_common': 'woman'}",,,,,,,,,,,,,,,,,,,,,,,,,,,,,,,,,,,,,,,,,,,,,,6258efa7c0091b19e2d31b64,6258ed6a796ee239fc08fb8e,61130a12d87efcd777a39fe7
2021,6258f0dd410f6008cca53b2c,Chrome,2.0,main_task,1.0,2.0,chris,"4/15/2022, 12:13:18 AM",hc3vbqkqkpoh4ff6y738,0.0-82.0,pilot_prolific_inform_memory,39,man,139,1.0,black,25R,U,3212.0,"['../stimuli/version1_gray_lm/id001_25L_C.png', '../stimuli/version1_gray_lm/id139_25R_U.png', '../stimuli/version1_gray_lm/id001_00C_D.png']",298286.0,0.0,89.0,40.0,encoding,man,001,"[0, 2]",black,"['25L', '00C']","['C', 'D']",,"{'muct_id': '623', 'lighting': 'y', 'race_guess': 'b', 'gender_guess': 'm', 'quality': '3', 'quality_eyes': '3', 'quality_mouth': '3', 'quality_ears': '3', 'quality_hair': '3', 'quality_neck': '3', 'facial_hair': '1.0', 'notes': 'mouth', 'race_common': 'black', 'gender_common': 'man'}","{'muct_id': '1', 'lighting': 'q', 'race_guess': 'b', 'gender_guess': 'm', 'quality': '3', 'quality_eyes': '3', 'quality_mouth': '3', 'quality_ears': '3', 'quality_hair': '3', 'quality_neck': '3', 'facial_hair': '1.0', 'notes': None, 'race_common': 'black', 'gender_common': 'man'}",,,,,,,,,,,,,,,,,,,,,,,,,,,,,,,,,,,,,,,,,,,,,,6258efa7c0091b19e2d31b64,6258ed6a796ee239fc08fb8e,61130a12d87efcd777a39fe7
2022,6258f0e2410f6008cca53b2d,Chrome,,main_task,,,chris,"4/15/2022, 12:13:23 AM",,0.0-84.0,pilot_prolific_inform_memory,,,,,,,,4937.200000017881,"<p style='font-size: 150%'><b>You have finished Part 1!</b></p><p>Nice job! On this section, you averaged <b>83% accuracy</b>.</p><p>You're on track to earn a good bonus. Keep up the good work!</p><p>Click 'Next' to continue to Part 2.</p>",303680.0,,91.0,,bonus_update,,,,,,,,,,0,encoding,3.558,,,,,,,,,,,,,,,,,,,,,,,,,,,,,,,,,,,,,,,,,,,6258efa7c0091b19e2d31b64,6258ed6a796ee239fc08fb8e,61130a12d87efcd777a39fe7
2023,6258f0fb410f6008cca53b2e,Chrome,3.0,main_task,1.0,3.0,chris,"4/15/2022, 12:13:48 AM",hc3vbqkqkpoh4ff6y738,0.0-86.0-0.0,pilot_prolific_inform_memory,40,,,83.0,,,,1413.0,"['../stimuli/objectome/75.jpeg', '../stimuli/objectome/79.jpeg', '../stimuli/objectome/83.jpeg']",328315.0,0.0,93.0,1.0,filler,,,,,,,,,,,,,animals,LIONESS,animals,LIONESS,within,"{'1': None, '2': None, '3': None}",animals,"[75, 79]",GORILLA,V0,,,,,,,,,,,,,,,,,,,,,,,,,,,,,,,,,6258efa7c0091b19e2d31b64,6258ed6a796ee239fc08fb8e,61130a12d87efcd777a39fe7
2024,6258f0fd410f6008cca53b2f,Chrome,1.0,main_task,1.0,1.0,chris,"4/15/2022, 12:13:50 AM",hc3vbqkqkpoh4ff6y738,0.0-87.0-0.0,pilot_prolific_inform_memory,37,,,2097.0,,,,1548.0,"['../stimuli/objectome/2097.jpeg', '../stimuli/objectome/2261.jpeg', '../stimuli/objectome/2242.jpeg']",330504.0,0.0,95.0,2.0,filler,,,,,,,,,,,,,animals,bear,animals,bear,within,"{'1': None, '2': None, '3': None}",animals,"[2261, 2242]",breed_pug,V3,,,,,,,,,,,,,,,,,,,,,,,,,,,,,,,,,6258efa7c0091b19e2d31b64,6258ed6a796ee239fc08fb8e,61130a12d87efcd777a39fe7
2025,6258f0ff410f6008cca53b30,Chrome,3.0,main_task,1.0,3.0,chris,"4/15/2022, 12:13:52 AM",hc3vbqkqkpoh4ff6y738,0.0-88.0-0.0,pilot_prolific_inform_memory,40,,,2143.0,,,,1781.0,"['../stimuli/objectome/2243.jpeg', '../stimuli/objectome/2250.jpeg', '../stimuli/objectome/2143.jpeg']",332844.0,0.0,97.0,3.0,filler,,,,,,,,,,,,,animals,blCow,animals,blCow,within,"{'1': None, '2': None, '3': None}",animals,"[2243, 2250]",breed_pug,V3,,,,,,,,,,,,,,,,,,,,,,,,,,,,,,,,,6258efa7c0091b19e2d31b64,6258ed6a796ee239fc08fb8e,61130a12d87efcd777a39fe7
2026,6258f106410f6008cca53b31,Chrome,2.0,main_task,1.0,2.0,chris,"4/15/2022, 12:13:59 AM",hc3vbqkqkpoh4ff6y738,0.0-90.0,pilot_prolific_inform_memory,39,,,1218.0,,,,2101.0,"['../stimuli/objectome/916.jpeg', '../stimuli/objectome/1218.jpeg', '../stimuli/objectome/889.jpeg']",339123.0,0.0,100.0,4.0,filler,,,,,,,,,,,,,animals,TURTLE_L,animals,TURTLE_L,within,"{'1': None, '2': None, '3': None}",animals,"[916, 889]",ELEPHANT_M,V3,,,,,,,,,,,,,,,,,,,,,,,,,,,,,,,,,6258efa7c0091b19e2d31b64,6258ed6a796ee239fc08fb8e,61130a12d87efcd777a39fe7
2027,6258f108410f6008cca53b32,Chrome,2.0,main_task,1.0,2.0,chris,"4/15/2022, 12:14:01 AM",hc3vbqkqkpoh4ff6y738,0.0-92.0,pilot_prolific_inform_memory,39,,,953.0,,,,1344.0,"['../stimuli/objectome/2244.jpeg', '../stimuli/objectome/953.jpeg', '../stimuli/objectome/2273.jpeg']",341160.0,0.0,102.0,5.0,filler,,,,,,,,,,,,,animals,GORILLA,animals,GORILLA,within,"{'1': None, '2': None, '3': None}",animals,"[2244, 2273]",breed_pug,V3,,,,,,,,,,,,,,,,,,,,,,,,,,,,,,,,,6258efa7c0091b19e2d31b64,6258ed6a796ee239fc08fb8e,61130a12d87efcd777a39fe7
2028,6258f10a410f6008cca53b33,Chrome,2.0,main_task,1.0,2.0,chris,"4/15/2022, 12:14:03 AM",hc3vbqkqkpoh4ff6y738,0.0-94.0,pilot_prolific_inform_memory,39,,,2087.0,,,,1750.0,"['../stimuli/objectome/1238.jpeg', '../stimuli/objectome/2087.jpeg', '../stimuli/objectome/1239.jpeg']",343385.0,0.0,104.0,6.0,filler,,,,,,,,,,,,,animals,bear,animals,bear,within,"{'1': None, '2': None, '3': None}",animals,"[1238, 1239]",TURTLE_L,V3,,,,,,,,,,,,,,,,,,,,,,,,,,,,,,,,,6258efa7c0091b19e2d31b64,6258ed6a796ee239fc08fb8e,61130a12d87efcd777a39fe7
2029,6258f10d410f6008cca53b34,Chrome,2.0,main_task,1.0,2.0,chris,"4/15/2022, 12:14:06 AM",hc3vbqkqkpoh4ff6y738,0.0-96.0,pilot_prolific_inform_memory,39,,,2140.0,,,,2282.0,"['../stimuli/objectome/927.jpeg', '../stimuli/objectome/2140.jpeg', '../stimuli/objectome/958.jpeg']",346185.0,0.0,106.0,7.0,filler,,,,,,,,,,,,,animals,blCow,animals,blCow,within,"{'1': None, '2': None, '3': None}",animals,"[927, 958]",GORILLA,V3,,,,,,,,,,,,,,,,,,,,,,,,,,,,,,,,,6258efa7c0091b19e2d31b64,6258ed6a796ee239fc08fb8e,61130a12d87efcd777a39fe7
2030,6258f10f410f6008cca53b35,Chrome,2.0,main_task,1.0,2.0,chris,"4/15/2022, 12:14:08 AM",hc3vbqkqkpoh4ff6y738,0.0-98.0,pilot_prolific_inform_memory,39,,,1430.0,,,,1465.0,"['../stimuli/objectome/1570.jpeg', '../stimuli/objectome/1430.jpeg', '../stimuli/objectome/1571.jpeg']",348173.0,0.0,108.0,8.0,filler,,,,,,,,,,,,,chairs,_011,chairs,_011,within,"{'1': None, '2': None, '3': None}",chairs,"[1570, 1571]",_033,V3,,,,,,,,,,,,,,,,,,,,,,,,,,,,,,,,,6258efa7c0091b19e2d31b64,6258ed6a796ee239fc08fb8e,61130a12d87efcd777a39fe7
2031,6258f111410f6008cca53b36,Chrome,1.0,main_task,1.0,1.0,chris,"4/15/2022, 12:14:10 AM",hc3vbqkqkpoh4ff6y738,0.0-100.0,pilot_prolific_inform_memory,37,,,1317.0,,,,1698.0,"['../stimuli/objectome/1317.jpeg', '../stimuli/objectome/1325.jpeg', '../stimuli/objectome/1322.jpeg']",350312.0,0.0,110.0,9.0,filler,,,,,,,,,,,,,chairs,_004,chairs,_004,within,"{'1': None, '2': None, '3': None}",chairs,"[1325, 1322]",_008,V3,,,,,,,,,,,,,,,,,,,,,,,,,,,,,,,,,6258efa7c0091b19e2d31b64,6258ed6a796ee239fc08fb8e,61130a12d87efcd777a39fe7
2032,6258f113410f6008cca53b37,Chrome,1.0,main_task,1.0,1.0,chris,"4/15/2022, 12:14:12 AM",hc3vbqkqkpoh4ff6y738,0.0-102.0,pilot_prolific_inform_memory,37,,,1310.0,,,,1389.0,"['../stimuli/objectome/1310.jpeg', '../stimuli/objectome/1373.jpeg', '../stimuli/objectome/1394.jpeg']",352292.0,0.0,112.0,10.0,filler,,,,,,,,,,,,,chairs,_004,chairs,_004,within,"{'1': None, '2': None, '3': None}",chairs,"[1373, 1394]",_010,V3,,,,,,,,,,,,,,,,,,,,,,,,,,,,,,,,,6258efa7c0091b19e2d31b64,6258ed6a796ee239fc08fb8e,61130a12d87efcd777a39fe7
2033,6258f115410f6008cca53b38,Chrome,1.0,main_task,1.0,1.0,chris,"4/15/2022, 12:14:14 AM",hc3vbqkqkpoh4ff6y738,0.0-104.0,pilot_prolific_inform_memory,37,,,163.0,,,,1928.0,"['../stimuli/objectome/163.jpeg', '../stimuli/objectome/193.jpeg', '../stimuli/objectome/190.jpeg']",354817.0,0.0,114.0,11.0,filler,,,,,,,,,,,,,chairs,_004,chairs,_004,within,"{'1': None, '2': None, '3': None}",chairs,"[193, 190]",_011,V0,,,,,,,,,,,,,,,,,,,,,,,,,,,,,,,,,6258efa7c0091b19e2d31b64,6258ed6a796ee239fc08fb8e,61130a12d87efcd777a39fe7
2034,6258f118410f6008cca53b39,Chrome,1.0,main_task,0.0,2.0,chris,"4/15/2022, 12:14:17 AM",hc3vbqkqkpoh4ff6y738,0.0-106.0,pilot_prolific_inform_memory,37,,,1471.0,,,,2512.0,"['../stimuli/objectome/1250.jpeg', '../stimuli/objectome/1471.jpeg', '../stimuli/objectome/1241.jpeg']",357916.0,0.0,116.0,12.0,filler,,,,,,,,,,,,,chairs,_001,chairs,_014,within,"{'1': None, '2': None, '3': None}",chairs,"[1250, 1241]",_001,V3,,,,,,,,,,,,,,,,,,,,,,,,,,,,,,,,,6258efa7c0091b19e2d31b64,6258ed6a796ee239fc08fb8e,61130a12d87efcd777a39fe7
2035,6258f11d410f6008cca53b3a,Chrome,1.0,main_task,1.0,1.0,chris,"4/15/2022, 12:14:22 AM",hc3vbqkqkpoh4ff6y738,0.0-108.0,pilot_prolific_inform_memory,37,,,1286.0,,,,3314.0,"['../stimuli/objectome/1286.jpeg', '../stimuli/objectome/1475.jpeg', '../stimuli/objectome/1441.jpeg']",362080.0,0.0,118.0,13.0,filler,,,,,,,,,,,,,chairs,_004,chairs,_004,within,"{'1': None, '2': None, '3': None}",chairs,"[1475, 1441]",_014,V3,,,,,,,,,,,,,,,,,,,,,,,,,,,,,,,,,6258efa7c0091b19e2d31b64,6258ed6a796ee239fc08fb8e,61130a12d87efcd777a39fe7
2036,6258f120410f6008cca53b3b,Chrome,2.0,main_task,1.0,2.0,chris,"4/15/2022, 12:14:25 AM",hc3vbqkqkpoh4ff6y738,0.0-110.0,pilot_prolific_inform_memory,39,,,1368.0,,,,2764.0,"['../stimuli/objectome/1462.jpeg', '../stimuli/objectome/1368.jpeg', '../stimuli/objectome/1470.jpeg']",365316.0,0.0,120.0,14.0,filler,,,,,,,,,,,,,chairs,_010,chairs,_010,within,"{'1': None, '2': None, '3': None}",chairs,"[1462, 1470]",_014,V3,,,,,,,,,,,,,,,,,,,,,,,,,,,,,,,,,6258efa7c0091b19e2d31b64,6258ed6a796ee239fc08fb8e,61130a12d87efcd777a39fe7
2037,6258f125410f6008cca53b3c,Chrome,1.0,main_task,1.0,1.0,chris,"4/15/2022, 12:14:30 AM",hc3vbqkqkpoh4ff6y738,0.0-112.0,pilot_prolific_inform_memory,37,,,1854.0,,,,4758.0,"['../stimuli/objectome/1854.jpeg', '../stimuli/objectome/1483.jpeg', '../stimuli/objectome/1518.jpeg']",370599.0,0.0,122.0,15.0,filler,,,,,,,,,,,,,planes,_19_flyingBoat,planes,_19_flyingBoat,within,"{'1': None, '2': None, '3': None}",planes,"[1483, 1518]",_01_Airliner_2jetEngines,V3,,,,,,,,,,,,,,,,,,,,,,,,,,,,,,,,,6258efa7c0091b19e2d31b64,6258ed6a796ee239fc08fb8e,61130a12d87efcd777a39fe7
2038,6258f12b410f6008cca53b3d,Chrome,2.0,main_task,1.0,2.0,chris,"4/15/2022, 12:14:36 AM",hc3vbqkqkpoh4ff6y738,0.0-114.0,pilot_prolific_inform_memory,39,,,1631.0,,,,5337.0,"['../stimuli/objectome/2419.jpeg', '../stimuli/objectome/1631.jpeg', '../stimuli/objectome/2421.jpeg']",376410.0,0.0,124.0,16.0,filler,,,,,,,,,,,,,planes,_05_future,planes,_05_future,within,"{'1': None, '2': None, '3': None}",planes,"[2419, 2421]",f16,V3,,,,,,,,,,,,,,,,,,,,,,,,,,,,,,,,,6258efa7c0091b19e2d31b64,6258ed6a796ee239fc08fb8e,61130a12d87efcd777a39fe7
2039,6258f12e410f6008cca53b3e,Chrome,2.0,main_task,1.0,2.0,chris,"4/15/2022, 12:14:39 AM",hc3vbqkqkpoh4ff6y738,0.0-116.0,pilot_prolific_inform_memory,39,,,2875.0,,,,2617.0,"['../stimuli/objectome/3009.jpeg', '../stimuli/objectome/2875.jpeg', '../stimuli/objectome/3003.jpeg']",379576.0,0.0,126.0,17.0,filler,,,,,,,,,,,,,planes,mig29,planes,mig29,within,"{'1': None, '2': None, '3': None}",planes,"[3009, 3003]",sopwith,V3,,,,,,,,,,,,,,,,,,,,,,,,,,,,,,,,,6258efa7c0091b19e2d31b64,6258ed6a796ee239fc08fb8e,61130a12d87efcd777a39fe7
2040,6258f131410f6008cca53b3f,Chrome,2.0,main_task,1.0,2.0,chris,"4/15/2022, 12:14:42 AM",hc3vbqkqkpoh4ff6y738,0.0-118.0,pilot_prolific_inform_memory,39,,,2964.0,,,,2739.0,"['../stimuli/objectome/1612.jpeg', '../stimuli/objectome/2964.jpeg', '../stimuli/objectome/1611.jpeg']",382695.0,0.0,128.0,18.0,filler,,,,,,,,,,,,,planes,rdbarren,planes,rdbarren,within,"{'1': None, '2': None, '3': None}",planes,"[1612, 1611]",_05_future,V3,,,,,,,,,,,,,,,,,,,,,,,,,,,,,,,,,6258efa7c0091b19e2d31b64,6258ed6a796ee239fc08fb8e,61130a12d87efcd777a39fe7
2041,6258f134410f6008cca53b40,Chrome,2.0,main_task,1.0,2.0,chris,"4/15/2022, 12:14:45 AM",hc3vbqkqkpoh4ff6y738,0.0-120.0,pilot_prolific_inform_memory,39,,,2431.0,,,,2537.0,"['../stimuli/objectome/1509.jpeg', '../stimuli/objectome/2431.jpeg', '../stimuli/objectome/1487.jpeg']",385602.0,0.0,130.0,19.0,filler,,,,,,,,,,,,,planes,f16,planes,f16,within,"{'1': None, '2': None, '3': None}",planes,"[1509, 1487]",_01_Airliner_2jetEngines,V3,,,,,,,,,,,,,,,,,,,,,,,,,,,,,,,,,6258efa7c0091b19e2d31b64,6258ed6a796ee239fc08fb8e,61130a12d87efcd777a39fe7
2042,6258f139410f6008cca53b41,Chrome,2.0,main_task,1.0,2.0,chris,"4/15/2022, 12:14:50 AM",hc3vbqkqkpoh4ff6y738,0.0-122.0,pilot_prolific_inform_memory,39,,,3013.0,,,,4895.0,"['../stimuli/objectome/2827.jpeg', '../stimuli/objectome/3013.jpeg', '../stimuli/objectome/2818.jpeg']",390763.0,0.0,132.0,20.0,filler,,,,,,,,,,,,,planes,sopwith,planes,sopwith,within,"{'1': None, '2': None, '3': None}",planes,"[2827, 2818]",junkers88,V3,,,,,,,,,,,,,,,,,,,,,,,,,,,,,,,,,6258efa7c0091b19e2d31b64,6258ed6a796ee239fc08fb8e,61130a12d87efcd777a39fe7
2043,6258f13d410f6008cca53b42,Chrome,,main_task,,,chris,"4/15/2022, 12:14:54 AM",,0.0-124.0,pilot_prolific_inform_memory,,,,,,,,3100.2000000178814,"<p style='font-size: 150%'><b>You have finished Part 2!</b></p><p>Nice job! On this section, you averaged <b>95% accuracy</b>.</p><p>You're on track to earn a good bonus. Keep up the good work!</p><p>Click 'Next' to continue to Part 3.</p>",394273.0,,134.0,,bonus_update,,,,,,,,,,0,filler,4.558,,,,,,,,,,,,,,,,,,,,,,,,,,,,,,,,,,,,,,,,,,,6258efa7c0091b19e2d31b64,6258ed6a796ee239fc08fb8e,61130a12d87efcd777a39fe7
2044,6258f193410f6008cca53b43,Chrome,,main_task,1.0,1.0,chris,"4/15/2022, 12:16:20 AM",hc3vbqkqkpoh4ff6y738,0.0-126.0-0.0,pilot_prolific_inform_memory,,,,,,,,3128.0,../stimuli/version1_gray_lm/id120_00C_D.png,480086.0,0.0,136.0,1.0,retrieval_practice,,,,,,,,,,,,,,,,,,,,,,,068,oddity,woman,120,"{'muct_id': '421', 'lighting': 'x', 'race_guess': 'b', 'gender_guess': 'w', 'quality': '3', 'quality_eyes': '3', 'quality_mouth': '3', 'quality_ears': '3', 'quality_hair': '3', 'quality_neck': '3', 'facial_hair': '0.0', 'notes': None, 'race_common': 'black', 'gender_common': 'woman'}",19,00C,D,black,93,old,00C,D,00C,0,,,,,,,,,,,,,,,,,,6258efa7c0091b19e2d31b64,6258ed6a796ee239fc08fb8e,61130a12d87efcd777a39fe7
2045,6258f198410f6008cca53b44,Chrome,,main_task,0.0,0.0,chris,"4/15/2022, 12:16:25 AM",hc3vbqkqkpoh4ff6y738,0.0-127.0-0.0,pilot_prolific_inform_memory,,,,,,,,3682.699999988079,../stimuli/version1_gray_lm/id085_00C_U.png,485458.0,0.0,138.0,2.0,retrieval_practice,,,,,,,,,,,,,,,,,,,,,,,,,,085,"{'muct_id': '249', 'lighting': 't', 'race_guess': 'b', 'gender_guess': 'w', 'quality': '2', 'quality_eyes': '2', 'quality_mouth': '3', 'quality_ears': '3', 'quality_hair': '3', 'quality_neck': '3', 'facial_hair': '0.0', 'notes': None, 'race_common': 'black', 'gender_common': 'man'}",,,,black,92,new,00C,U,,,,,,,,,,,,,,,,,,,,6258efa7c0091b19e2d31b64,6258ed6a796ee239fc08fb8e,61130a12d87efcd777a39fe7
2046,6258f19c410f6008cca53b45,Chrome,,main_task,1.0,0.0,chris,"4/15/2022, 12:16:29 AM",hc3vbqkqkpoh4ff6y738,0.0-127.1-0.1,pilot_prolific_inform_memory,,,,,,,,2847.4000000059605,../stimuli/version1_gray_lm/id085_00C_U.png,489697.0,0.0,140.0,3.0,retrieval_practice,,,,,,,,,,,,,,,,,,,,,,,,,,085,"{'muct_id': '249', 'lighting': 't', 'race_guess': 'b', 'gender_guess': 'w', 'quality': '2', 'quality_eyes': '2', 'quality_mouth': '3', 'quality_ears': '3', 'quality_hair': '3', 'quality_neck': '3', 'facial_hair': '0.0', 'notes': None, 'race_common': 'black', 'gender_common': 'man'}",,,,black,15,new,00C,U,,,,,,,,,,,,,,,,,,,,6258efa7c0091b19e2d31b64,6258ed6a796ee239fc08fb8e,61130a12d87efcd777a39fe7
2047,6258f1a1410f6008cca53b46,Chrome,,main_task,1.0,1.0,chris,"4/15/2022, 12:16:34 AM",hc3vbqkqkpoh4ff6y738,0.0-128.0-0.0,pilot_prolific_inform_memory,,,,,,,,3136.800000011921,../stimuli/version1_gray_lm/id136_00C_D.png,494216.0,0.0,142.0,4.0,retrieval_practice,,,,,,,,,,,,,,,,,,,,,,,144,oddity,woman,136,"{'muct_id': '616', 'lighting': 'y', 'race_guess': 'b', 'gender_guess': 'w', 'quality': '3', 'quality_eyes': '3', 'quality_mouth': '3', 'quality_ears': '3', 'quality_hair': '3', 'quality_neck': '3', 'facial_hair': '0.0', 'notes': 'earrings', 'race_common': 'black', 'gender_common': 'woman'}",33,50L,D,black,82,old,00C,D,50R,50,,,,,,,,,,,,,,,,,,6258efa7c0091b19e2d31b64,6258ed6a796ee239fc08fb8e,61130a12d87efcd777a39fe7
2048,6258f1aa410f6008cca53b47,Chrome,,main_task,1.0,0.0,chris,"4/15/2022, 12:16:43 AM",hc3vbqkqkpoh4ff6y738,0.0-130.0,pilot_prolific_inform_memory,,,,,,,,3287.7999999821186,../stimuli/version1_gray_lm/id041_25L_D.png,503008.0,0.0,145.0,1.0,retrieval,,,,,,,,,,,,,,,,,,,,,,,,,,041,"{'muct_id': '56', 'lighting': 'q', 'race_guess': 'w', 'gender_guess': 'm', 'quality': '3', 'quality_eyes': '3', 'quality_mouth': '3', 'quality_ears': '3', 'quality_hair': '3', 'quality_neck': '3', 'facial_hair': '0.0', 'notes': None, 'race_common': 'white', 'gender_common': 'man'}",,,,white,11,new,25L,D,,,,,,,,,,,,,,,,,,,,6258efa7c0091b19e2d31b64,6258ed6a796ee239fc08fb8e,61130a12d87efcd777a39fe7
2049,6258f1af410f6008cca53b48,Chrome,,main_task,1.0,0.0,chris,"4/15/2022, 12:16:48 AM",hc3vbqkqkpoh4ff6y738,0.0-132.0,pilot_prolific_inform_memory,,,,,,,,4941.200000017881,../stimuli/version1_gray_lm/id036_50L_D.png,508659.0,0.0,147.0,2.0,retrieval,,,,,,,,,,,,,,,,,,,,,,,,,,036,"{'muct_id': '47', 'lighting': 'q', 'race_guess': 'b', 'gender_guess': 'u', 'quality': '3', 'quality_eyes': '3', 'quality_mouth': '3', 'quality_ears': '3', 'quality_hair': '3', 'quality_neck': '3', 'facial_hair': '0.0', 'notes': None, 'race_common': 'black', 'gender_common': 'man'}",,,,black,39,new,50L,D,,,,,,,,,,,,,,,,,,,,6258efa7c0091b19e2d31b64,6258ed6a796ee239fc08fb8e,61130a12d87efcd777a39fe7
2050,6258f1b3410f6008cca53b49,Chrome,,main_task,1.0,0.0,chris,"4/15/2022, 12:16:52 AM",hc3vbqkqkpoh4ff6y738,0.0-134.0,pilot_prolific_inform_memory,,,,,,,,3313.9000000059605,../stimuli/version1_gray_lm/id044_25R_C.png,512696.0,0.0,149.0,3.0,retrieval,,,,,,,,,,,,,,,,,,,,,,,,,,044,"{'muct_id': '60', 'lighting': 's', 'race_guess': 'u', 'gender_guess': 'm', 'quality': '3', 'quality_eyes': '3', 'quality_mouth': '3', 'quality_ears': '3', 'quality_hair': '3', 'quality_neck': '3', 'facial_hair': '2.0', 'notes': None, 'race_common': 'white', 'gender_common': 'man'}",,,,white,26,new,25R,C,,,,,,,,,,,,,,,,,,,,6258efa7c0091b19e2d31b64,6258ed6a796ee239fc08fb8e,61130a12d87efcd777a39fe7
2051,6258f1b7410f6008cca53b4a,Chrome,,main_task,0.0,0.0,chris,"4/15/2022, 12:16:56 AM",hc3vbqkqkpoh4ff6y738,0.0-136.0,pilot_prolific_inform_memory,,,,,,,,2949.800000011921,../stimuli/version1_gray_lm/id059_25L_D.png,516234.0,0.0,151.0,4.0,retrieval,,,,,,,,,,,,,,,,,,,,,,,,,,059,"{'muct_id': '86', 'lighting': 'q', 'race_guess': 'b', 'gender_guess': 'w', 'quality': '3', 'quality_eyes': '3', 'quality_mouth': '3', 'quality_ears': '3', 'quality_hair': '3', 'quality_neck': '3', 'facial_hair': '0.0', 'notes': 'earrings', 'race_common': 'black', 'gender_common': 'woman'}",,,,black,84,new,25L,D,,,,,,,,,,,,,,,,,,,,6258efa7c0091b19e2d31b64,6258ed6a796ee239fc08fb8e,61130a12d87efcd777a39fe7
2052,6258f1bb410f6008cca53b4b,Chrome,,main_task,0.0,0.0,chris,"4/15/2022, 12:17:00 AM",hc3vbqkqkpoh4ff6y738,0.0-138.0,pilot_prolific_inform_memory,,,,,,,,3504.100000023842,../stimuli/version1_gray_lm/id060_25R_C.png,520446.0,0.0,153.0,5.0,retrieval,,,,,,,,,,,,,,,,,,,,,,,,,,060,"{'muct_id': '88', 'lighting': 'q', 'race_guess': 'b', 'gender_guess': 'w', 'quality': '3', 'quality_eyes': '3', 'quality_mouth': '3', 'quality_ears': '3', 'quality_hair': '3', 'quality_neck': '3', 'facial_hair': '0.0', 'notes': 'earrings', 'race_common': 'black', 'gender_common': 'woman'}",,,,black,71,new,25R,C,,,,,,,,,,,,,,,,,,,,6258efa7c0091b19e2d31b64,6258ed6a796ee239fc08fb8e,61130a12d87efcd777a39fe7
2053,6258f1bf410f6008cca53b4c,Chrome,,main_task,1.0,1.0,chris,"4/15/2022, 12:17:04 AM",hc3vbqkqkpoh4ff6y738,0.0-140.0,pilot_prolific_inform_memory,,,,,,,,3376.4000000059605,../stimuli/version1_gray_lm/id125_50R_D.png,524364.0,0.0,155.0,6.0,retrieval,,,,,,,,,,,,,,,,,,,,,,,031,oddity,woman,125,"{'muct_id': '433', 'lighting': 'x', 'race_guess': 'w', 'gender_guess': 'w', 'quality': '3', 'quality_eyes': '3', 'quality_mouth': '3', 'quality_ears': '3', 'quality_hair': '3', 'quality_neck': '3', 'facial_hair': '0.0', 'notes': None, 'race_common': 'white', 'gender_common': 'woman'}",16,50R,D,white,100,old,50R,D,00C,0,,,,,,,,,,,,,,,,,,6258efa7c0091b19e2d31b64,6258ed6a796ee239fc08fb8e,61130a12d87efcd777a39fe7
2054,6258f1c3410f6008cca53b4d,Chrome,,main_task,0.0,1.0,chris,"4/15/2022, 12:17:08 AM",hc3vbqkqkpoh4ff6y738,0.0-142.0,pilot_prolific_inform_memory,,,,,,,,3134.0999999940395,../stimuli/version1_gray_lm/id116_00C_U.png,528167.0,0.0,157.0,7.0,retrieval,,,,,,,,,,,,,,,,,,,,,,,156,oddity,man,116,"{'muct_id': '414', 'lighting': 'w', 'race_guess': 'w', 'gender_guess': 'm', 'quality': '3', 'quality_eyes': '3', 'quality_mouth': '3', 'quality_ears': '3', 'quality_hair': '3', 'quality_neck': '3', 'facial_hair': '0.0', 'notes': None, 'race_common': 'white', 'gender_common': 'man'}",15,50R,U,white,12,old,00C,U,50L,-50,,,,,,,,,,,,,,,,,,6258efa7c0091b19e2d31b64,6258ed6a796ee239fc08fb8e,61130a12d87efcd777a39fe7
2055,6258f1c7410f6008cca53b4e,Chrome,,main_task,1.0,1.0,chris,"4/15/2022, 12:17:12 AM",hc3vbqkqkpoh4ff6y738,0.0-144.0,pilot_prolific_inform_memory,,,,,,,,3514.9000000059605,../stimuli/version1_gray_lm/id113_00C_U.png,532245.0,0.0,159.0,8.0,retrieval,,,,,,,,,,,,,,,,,,,,,,,040,oddity,man,113,"{'muct_id': '407', 'lighting': 'x', 'race_guess': 'u', 'gender_guess': 'm', 'quality': '3', 'quality_eyes': '3', 'quality_mouth': '3', 'quality_ears': '3', 'quality_hair': '3', 'quality_neck': '3', 'facial_hair': '3.0', 'notes': 'beard', 'race_common': 'black', 'gender_common': 'man'}",11,00C,U,black,76,old,00C,U,00C,0,,,,,,,,,,,,,,,,,,6258efa7c0091b19e2d31b64,6258ed6a796ee239fc08fb8e,61130a12d87efcd777a39fe7
2056,6258f1cb410f6008cca53b4f,Chrome,,main_task,1.0,0.0,chris,"4/15/2022, 12:17:16 AM",hc3vbqkqkpoh4ff6y738,0.0-146.0,pilot_prolific_inform_memory,,,,,,,,3844.2000000178814,../stimuli/version1_gray_lm/id073_50R_C.png,536671.0,0.0,161.0,9.0,retrieval,,,,,,,,,,,,,,,,,,,,,,,,,,073,"{'muct_id': '225', 'lighting': 'u', 'race_guess': 'w', 'gender_guess': 'm', 'quality': '3', 'quality_eyes': '3', 'quality_mouth': '3', 'quality_ears': '3', 'quality_hair': '3', 'quality_neck': '3', 'facial_hair': '2.0', 'notes': None, 'race_common': 'white', 'gender_common': 'man'}",,,,white,12,new,50R,C,,,,,,,,,,,,,,,,,,,,6258efa7c0091b19e2d31b64,6258ed6a796ee239fc08fb8e,61130a12d87efcd777a39fe7
2057,6258f1cf410f6008cca53b50,Chrome,,main_task,1.0,1.0,chris,"4/15/2022, 12:17:20 AM",hc3vbqkqkpoh4ff6y738,0.0-148.0,pilot_prolific_inform_memory,,,,,,,,3073.699999988079,../stimuli/version1_gray_lm/id133_50R_C.png,540239.0,0.0,163.0,10.0,retrieval,,,,,,,,,,,,,,,,,,,,,,,005,oddity,woman,133,"{'muct_id': '601', 'lighting': 'y', 'race_guess': 'b', 'gender_guess': 'w', 'quality': '3', 'quality_eyes': '3', 'quality_mouth': '3', 'quality_ears': '3', 'quality_hair': '3', 'quality_neck': '3', 'facial_hair': '0.0', 'notes': 'mouth', 'race_common': 'black', 'gender_common': 'woman'}",35,00C,C,black,94,old,50R,C,50R,50,,,,,,,,,,,,,,,,,,6258efa7c0091b19e2d31b64,6258ed6a796ee239fc08fb8e,61130a12d87efcd777a39fe7
2058,6258f1d3410f6008cca53b51,Chrome,,main_task,0.0,1.0,chris,"4/15/2022, 12:17:24 AM",hc3vbqkqkpoh4ff6y738,0.0-150.0,pilot_prolific_inform_memory,,,,,,,,3986.300000011921,../stimuli/version1_gray_lm/id127_00C_D.png,544806.0,0.0,165.0,11.0,retrieval,,,,,,,,,,,,,,,,,,,,,,,142,oddity,woman,127,"{'muct_id': '435', 'lighting': 'x', 'race_guess': 'b', 'gender_guess': 'w', 'quality': '3', 'quality_eyes': '3', 'quality_mouth': '3', 'quality_ears': '3', 'quality_hair': '3', 'quality_neck': '3', 'facial_hair': '0.0', 'notes': 'bandana', 'race_common': 'black', 'gender_common': 'woman'}",24,50L,D,black,28,old,00C,D,50R,50,,,,,,,,,,,,,,,,,,6258efa7c0091b19e2d31b64,6258ed6a796ee239fc08fb8e,61130a12d87efcd777a39fe7
2059,6258f1d8410f6008cca53b52,Chrome,,main_task,1.0,1.0,chris,"4/15/2022, 12:17:29 AM",hc3vbqkqkpoh4ff6y738,0.0-152.0,pilot_prolific_inform_memory,,,,,,,,4695.399999976158,../stimuli/version1_gray_lm/id123_25R_D.png,549811.0,0.0,167.0,12.0,retrieval,,,,,,,,,,,,,,,,,,,,,,,029,oddity,woman,123,"{'muct_id': '76', 'lighting': 'q', 'race_guess': 'w', 'gender_guess': 'w', 'quality': '2', 'quality_eyes': '2', 'quality_mouth': '3', 'quality_ears': '2', 'quality_hair': '2', 'quality_neck': '3', 'facial_hair': '0.0', 'notes': 'hair', 'race_common': 'white', 'gender_common': 'woman'}",18,25R,D,white,75,old,25R,D,00C,0,,,,,,,,,,,,,,,,,,6258efa7c0091b19e2d31b64,6258ed6a796ee239fc08fb8e,61130a12d87efcd777a39fe7
2060,6258f1dc410f6008cca53b53,Chrome,,main_task,1.0,1.0,chris,"4/15/2022, 12:17:33 AM",hc3vbqkqkpoh4ff6y738,0.0-154.0,pilot_prolific_inform_memory,,,,,,,,2820.699999988079,../stimuli/version1_gray_lm/id101_50R_U.png,553118.0,0.0,169.0,13.0,retrieval,,,,,,,,,,,,,,,,,,,,,,,054,oddity,woman,101,"{'muct_id': '281', 'lighting': 't', 'race_guess': 'w', 'gender_guess': 'w', 'quality': '3', 'quality_eyes': '3', 'quality_mouth': '3', 'quality_ears': '3', 'quality_hair': '3', 'quality_neck': '3', 'facial_hair': '0.0', 'notes': None, 'race_common': 'white', 'gender_common': 'woman'}",2,50R,U,white,83,old,50R,U,00C,0,,,,,,,,,,,,,,,,,,6258efa7c0091b19e2d31b64,6258ed6a796ee239fc08fb8e,61130a12d87efcd777a39fe7
2061,6258f1df410f6008cca53b54,Chrome,,main_task,0.0,1.0,chris,"4/15/2022, 12:17:36 AM",hc3vbqkqkpoh4ff6y738,0.0-156.0,pilot_prolific_inform_memory,,,,,,,,2791.9000000059605,../stimuli/version1_gray_lm/id118_00C_U.png,556424.0,0.0,171.0,14.0,retrieval,,,,,,,,,,,,,,,,,,,,,,,090,oddity,man,118,"{'muct_id': '419', 'lighting': 'x', 'race_guess': 'b', 'gender_guess': 'm', 'quality': '3', 'quality_eyes': '3', 'quality_mouth': '3', 'quality_ears': '3', 'quality_hair': '3', 'quality_neck': '3', 'facial_hair': '1.0', 'notes': None, 'race_common': 'black', 'gender_common': 'man'}",14,50L,U,black,24,old,00C,U,50R,50,,,,,,,,,,,,,,,,,,6258efa7c0091b19e2d31b64,6258ed6a796ee239fc08fb8e,61130a12d87efcd777a39fe7
2062,6258f1e4410f6008cca53b55,Chrome,,main_task,0.0,1.0,chris,"4/15/2022, 12:17:41 AM",hc3vbqkqkpoh4ff6y738,0.0-158.0,pilot_prolific_inform_memory,,,,,,,,4768.799999982119,../stimuli/version1_gray_lm/id104_25R_U.png,561733.0,0.0,173.0,15.0,retrieval,,,,,,,,,,,,,,,,,,,,,,,089,oddity,man,104,"{'muct_id': '287', 'lighting': 't', 'race_guess': 'w', 'gender_guess': 'm', 'quality': '3', 'quality_eyes': '3', 'quality_mouth': '3', 'quality_ears': '3', 'quality_hair': '3', 'quality_neck': '3', 'facial_hair': '2.0', 'notes': None, 'race_common': 'white', 'gender_common': 'man'}",6,25L,U,white,29,old,25R,U,50R,50,,,,,,,,,,,,,,,,,,6258efa7c0091b19e2d31b64,6258ed6a796ee239fc08fb8e,61130a12d87efcd777a39fe7
2063,6258f1e7410f6008cca53b56,Chrome,,main_task,1.0,1.0,chris,"4/15/2022, 12:17:45 AM",hc3vbqkqkpoh4ff6y738,0.0-160.0,pilot_prolific_inform_memory,,,,,,,,2742.2999999821186,../stimuli/version1_gray_lm/id132_00C_D.png,564961.0,0.0,175.0,16.0,retrieval,,,,,,,,,,,,,,,,,,,,,,,058,oddity,man,132,"{'muct_id': '450', 'lighting': 'w', 'race_guess': 'b', 'gender_guess': 'm', 'quality': '3', 'quality_eyes': '3', 'quality_mouth': '3', 'quality_ears': '3', 'quality_hair': '3', 'quality_neck': '3', 'facial_hair': '4.0', 'notes': 'mouth', 'race_common': 'black', 'gender_common': 'man'}",31,00C,D,black,84,old,00C,D,00C,0,,,,,,,,,,,,,,,,,,6258efa7c0091b19e2d31b64,6258ed6a796ee239fc08fb8e,61130a12d87efcd777a39fe7
2064,6258f1eb410f6008cca53b57,Chrome,,main_task,0.0,1.0,chris,"4/15/2022, 12:17:48 AM",hc3vbqkqkpoh4ff6y738,0.0-162.0,pilot_prolific_inform_memory,,,,,,,,2895.399999976158,../stimuli/version1_gray_lm/id115_50L_C.png,568367.0,0.0,177.0,17.0,retrieval,,,,,,,,,,,,,,,,,,,,,,,080,oddity,man,115,"{'muct_id': '412', 'lighting': 'x', 'race_guess': 'w', 'gender_guess': 'm', 'quality': '3', 'quality_eyes': '3', 'quality_mouth': '3', 'quality_ears': '3', 'quality_hair': '3', 'quality_neck': '3', 'facial_hair': '0.0', 'notes': None, 'race_common': 'white', 'gender_common': 'man'}",13,50L,C,white,32,old,50L,C,00C,0,,,,,,,,,,,,,,,,,,6258efa7c0091b19e2d31b64,6258ed6a796ee239fc08fb8e,61130a12d87efcd777a39fe7
2065,6258f1ef410f6008cca53b58,Chrome,,main_task,0.0,0.0,chris,"4/15/2022, 12:17:52 AM",hc3vbqkqkpoh4ff6y738,0.0-164.0,pilot_prolific_inform_memory,,,,,,,,3362.899999976158,../stimuli/version1_gray_lm/id019_50R_D.png,572426.0,0.0,179.0,18.0,retrieval,,,,,,,,,,,,,,,,,,,,,,,,,,019,"{'muct_id': '23', 'lighting': 'q', 'race_guess': 'b', 'gender_guess': 'u', 'quality': '3', 'quality_eyes': '3', 'quality_mouth': '3', 'quality_ears': '3', 'quality_hair': '3', 'quality_neck': '3', 'facial_hair': '0.0', 'notes': None, 'race_common': 'black', 'gender_common': 'woman'}",,,,black,75,new,50R,D,,,,,,,,,,,,,,,,,,,,6258efa7c0091b19e2d31b64,6258ed6a796ee239fc08fb8e,61130a12d87efcd777a39fe7
2066,6258f1f3410f6008cca53b59,Chrome,,main_task,1.0,1.0,chris,"4/15/2022, 12:17:56 AM",hc3vbqkqkpoh4ff6y738,0.0-166.0,pilot_prolific_inform_memory,,,,,,,,3669.2999999821186,../stimuli/version1_gray_lm/id146_50R_D.png,576498.0,0.0,181.0,19.0,retrieval,,,,,,,,,,,,,,,,,,,,,,,049,oddity,man,146,"{'muct_id': '254', 'lighting': 'v', 'race_guess': 'w', 'gender_guess': 'm', 'quality': '2', 'quality_eyes': '2', 'quality_mouth': '3', 'quality_ears': '3', 'quality_hair': '2', 'quality_neck': '3', 'facial_hair': '0.0', 'notes': 'hair', 'race_common': 'white', 'gender_common': 'man'}",26,00C,D,white,70,old,50R,D,50R,50,,,,,,,,,,,,,,,,,,6258efa7c0091b19e2d31b64,6258ed6a796ee239fc08fb8e,61130a12d87efcd777a39fe7
2067,6258f1f6410f6008cca53b5a,Chrome,,main_task,1.0,1.0,chris,"4/15/2022, 12:17:59 AM",hc3vbqkqkpoh4ff6y738,0.0-168.0,pilot_prolific_inform_memory,,,,,,,,2894.0,../stimuli/version1_gray_lm/id148_25R_D.png,579922.0,0.0,183.0,20.0,retrieval,,,,,,,,,,,,,,,,,,,,,,,088,oddity,woman,148,"{'muct_id': '415', 'lighting': 'w', 'race_guess': 'w', 'gender_guess': 'w', 'quality': '3', 'quality_eyes': '3', 'quality_mouth': '3', 'quality_ears': '3', 'quality_hair': '3', 'quality_neck': '3', 'facial_hair': '0.0', 'notes': None, 'race_common': 'white', 'gender_common': 'woman'}",30,25R,D,white,81,old,25R,D,00C,0,,,,,,,,,,,,,,,,,,6258efa7c0091b19e2d31b64,6258ed6a796ee239fc08fb8e,61130a12d87efcd777a39fe7
2068,6258f1fb410f6008cca53b5b,Chrome,,main_task,0.0,0.0,chris,"4/15/2022, 12:18:04 AM",hc3vbqkqkpoh4ff6y738,0.0-170.0,pilot_prolific_inform_memory,,,,,,,,3779.9000000059605,../stimuli/version1_gray_lm/id039_25L_D.png,584186.0,0.0,185.0,21.0,retrieval,,,,,,,,,,,,,,,,,,,,,,,,,,039,"{'muct_id': '52', 'lighting': 'q', 'race_guess': 'w', 'gender_guess': 'm', 'quality': '3', 'quality_eyes': '3', 'quality_mouth': '3', 'quality_ears': '3', 'quality_hair': '3', 'quality_neck': '3', 'facial_hair': '0.0', 'notes': None, 'race_common': 'white', 'gender_common': 'man'}",,,,white,72,new,25L,D,,,,,,,,,,,,,,,,,,,,6258efa7c0091b19e2d31b64,6258ed6a796ee239fc08fb8e,61130a12d87efcd777a39fe7
2069,6258f1fd410f6008cca53b5c,Chrome,2.0,main_task,1.0,2.0,chris,"4/14/2022, 9:18:04 PM",o49sfhdbmff3cgayln3k,0.0-2.0-0.0,pilot_prolific_inform_memory,39,woman,106,1.0,latinx,25L,U,2311.0,"['../stimuli/version1_gray_lm/id107_00C_C.png', '../stimuli/version1_gray_lm/id106_25L_U.png', '../stimuli/version1_gray_lm/id107_25R_D.png']",59074.0,0.0,2.0,1.0,encoding_practice,man,107,"[0, 2]",latinx,"['00C', '25R']","['C', 'D']",,,,,,,,,,,,,,,,,,,,,,,,,,,,,,,,,,,,,,,,,,,,,,,,,6258f1b94fa6a14369e42afc,6258ed6a796ee239fc08fb8f,60fd13ae344414eba986c9ed
2070,6258f1fe410f6008cca53b5d,Chrome,,main_task,1.0,1.0,chris,"4/15/2022, 12:18:07 AM",hc3vbqkqkpoh4ff6y738,0.0-172.0,pilot_prolific_inform_memory,,,,,,,,3116.5999999940395,../stimuli/version1_gray_lm/id141_00C_C.png,587899.0,0.0,187.0,22.0,retrieval,,,,,,,,,,,,,,,,,,,,,,,051,oddity,woman,141,"{'muct_id': '77', 'lighting': 's', 'race_guess': 'w', 'gender_guess': 'w', 'quality': '3', 'quality_eyes': '3', 'quality_mouth': '3', 'quality_ears': '3', 'quality_hair': '3', 'quality_neck': '3', 'facial_hair': '0.0', 'notes': None, 'race_common': 'white', 'gender_common': 'woman'}",22,50R,C,white,74,old,00C,C,50L,-50,,,,,,,,,,,,,,,,,,6258efa7c0091b19e2d31b64,6258ed6a796ee239fc08fb8e,61130a12d87efcd777a39fe7
2071,6258f200410f6008cca53b5e,Chrome,2.0,main_task,1.0,2.0,chris,"4/14/2022, 9:18:08 PM",o49sfhdbmff3cgayln3k,0.0-2.1-0.1,pilot_prolific_inform_memory,39,man,107,1.0,latinx,50L,C,1880.0,"['../stimuli/version1_gray_lm/id108_50R_U.png', '../stimuli/version1_gray_lm/id107_50L_C.png', '../stimuli/version1_gray_lm/id108_00C_D.png']",62892.0,0.0,4.0,2.0,encoding_practice,woman,108,"[0, 2]",latinx,"['50R', '00C']","['U', 'D']",,,,,,,,,,,,,,,,,,,,,,,,,,,,,,,,,,,,,,,,,,,,,,,,,6258f1b94fa6a14369e42afc,6258ed6a796ee239fc08fb8f,60fd13ae344414eba986c9ed
2072,6258f202410f6008cca53b5f,Chrome,,main_task,1.0,0.0,chris,"4/15/2022, 12:18:11 AM",hc3vbqkqkpoh4ff6y738,0.0-174.0,pilot_prolific_inform_memory,,,,,,,,3104.5,../stimuli/version1_gray_lm/id027_25R_U.png,591592.0,0.0,189.0,23.0,retrieval,,,,,,,,,,,,,,,,,,,,,,,,,,027,"{'muct_id': '37', 'lighting': 'q', 'race_guess': 'b', 'gender_guess': 'w', 'quality': '3', 'quality_eyes': '3', 'quality_mouth': '3', 'quality_ears': '3', 'quality_hair': '3', 'quality_neck': '3', 'facial_hair': '0.0', 'notes': 'earrings', 'race_common': 'black', 'gender_common': 'woman'}",,,,black,20,new,25R,U,,,,,,,,,,,,,,,,,,,,6258efa7c0091b19e2d31b64,6258ed6a796ee239fc08fb8e,61130a12d87efcd777a39fe7
2073,6258f203410f6008cca53b60,Chrome,2.0,main_task,1.0,2.0,chris,"4/14/2022, 9:18:11 PM",o49sfhdbmff3cgayln3k,0.0-2.2-0.2,pilot_prolific_inform_memory,39,woman,106,1.0,latinx,50R,U,1613.0,"['../stimuli/version1_gray_lm/id108_25L_D.png', '../stimuli/version1_gray_lm/id106_50R_U.png', '../stimuli/version1_gray_lm/id108_00C_C.png']",65361.0,0.0,6.0,3.0,encoding_practice,woman,108,"[0, 2]",latinx,"['25L', '00C']","['D', 'C']",1.0,,,,,,,,,,,,,,,,,,,,,,,,,,,,,,,,,,,,,,,,,,,,,,,,6258f1b94fa6a14369e42afc,6258ed6a796ee239fc08fb8f,60fd13ae344414eba986c9ed
2074,6258f206410f6008cca53b61,Chrome,,main_task,1.0,1.0,chris,"4/15/2022, 12:18:15 AM",hc3vbqkqkpoh4ff6y738,0.0-176.0,pilot_prolific_inform_memory,,,,,,,,3054.5999999940395,../stimuli/version1_gray_lm/id112_25L_D.png,595109.0,0.0,191.0,24.0,retrieval,,,,,,,,,,,,,,,,,,,,,,,056,oddity,man,112,"{'muct_id': '406', 'lighting': 'w', 'race_guess': 'b', 'gender_guess': 'm', 'quality': '3', 'quality_eyes': '3', 'quality_mouth': '3', 'quality_ears': '3', 'quality_hair': '3', 'quality_neck': '3', 'facial_hair': '1.0', 'notes': None, 'race_common': 'black', 'gender_common': 'man'}",7,25R,D,black,75,old,25L,D,50L,-50,,,,,,,,,,,,,,,,,,6258efa7c0091b19e2d31b64,6258ed6a796ee239fc08fb8e,61130a12d87efcd777a39fe7
2075,6258f209410f6008cca53b62,Chrome,,main_task,1.0,0.0,chris,"4/15/2022, 12:18:18 AM",hc3vbqkqkpoh4ff6y738,0.0-178.0,pilot_prolific_inform_memory,,,,,,,,3012.5,../stimuli/version1_gray_lm/id099_25R_D.png,598416.0,0.0,193.0,25.0,retrieval,,,,,,,,,,,,,,,,,,,,,,,,,,099,"{'muct_id': '278', 'lighting': 't', 'race_guess': 'w', 'gender_guess': 'm', 'quality': '3', 'quality_eyes': '3', 'quality_mouth': '3', 'quality_ears': '3', 'quality_hair': '3', 'quality_neck': '3', 'facial_hair': '0.0', 'notes': None, 'race_common': 'white', 'gender_common': 'man'}",,,,white,23,new,25R,D,,,,,,,,,,,,,,,,,,,,6258efa7c0091b19e2d31b64,6258ed6a796ee239fc08fb8e,61130a12d87efcd777a39fe7
2076,6258f20c410f6008cca53b63,Chrome,1.0,main_task,1.0,1.0,chris,"4/14/2022, 9:18:20 PM",o49sfhdbmff3cgayln3k,0.0-4.0,pilot_prolific_inform_memory,37,woman,101,0.0,white,50L,U,1239.0,"['../stimuli/version1_gray_lm/id101_50L_U.png', '../stimuli/version1_gray_lm/id076_25R_C.png', '../stimuli/version1_gray_lm/id076_00C_D.png']",74116.0,0.0,9.0,1.0,encoding,woman,076,"[1, 2]",white,"['25R', '00C']","['C', 'D']",,"{'muct_id': '281', 'lighting': 't', 'race_guess': 'w', 'gender_guess': 'w', 'quality': '3', 'quality_eyes': '3', 'quality_mouth': '3', 'quality_ears': '3', 'quality_hair': '3', 'quality_neck': '3', 'facial_hair': '0.0', 'notes': None, 'race_common': 'white', 'gender_common': 'woman'}","{'muct_id': '233', 'lighting': 'u', 'race_guess': 'w', 'gender_guess': 'w', 'quality': '3', 'quality_eyes': '3', 'quality_mouth': '3', 'quality_ears': '3', 'quality_hair': '3', 'quality_neck': '3', 'facial_hair': '0.0', 'notes': 'earrings', 'race_common': 'white', 'gender_common': 'woman'}",,,,,,,,,,,,,,,,,,,,,,,,,,,,,,,,,,,,,,,,,,,,,,6258f1b94fa6a14369e42afc,6258ed6a796ee239fc08fb8f,60fd13ae344414eba986c9ed
2077,6258f20c410f6008cca53b64,Chrome,,main_task,0.0,1.0,chris,"4/15/2022, 12:18:21 AM",hc3vbqkqkpoh4ff6y738,0.0-180.0,pilot_prolific_inform_memory,,,,,,,,2617.5,../stimuli/version1_gray_lm/id114_25L_D.png,601527.0,0.0,195.0,26.0,retrieval,,,,,,,,,,,,,,,,,,,,,,,003,oddity,woman,114,"{'muct_id': '410', 'lighting': 'w', 'race_guess': 'w', 'gender_guess': 'w', 'quality': '3', 'quality_eyes': '3', 'quality_mouth': '3', 'quality_ears': '3', 'quality_hair': '3', 'quality_neck': '3', 'facial_hair': '0.0', 'notes': 'makeup mouth', 'race_common': 'white', 'gender_common': 'woman'}",10,25R,D,white,24,old,25L,D,50L,-50,,,,,,,,,,,,,,,,,,6258efa7c0091b19e2d31b64,6258ed6a796ee239fc08fb8e,61130a12d87efcd777a39fe7
2078,6258f210410f6008cca53b65,Chrome,1.0,main_task,1.0,1.0,chris,"4/14/2022, 9:18:23 PM",o49sfhdbmff3cgayln3k,0.0-6.0,pilot_prolific_inform_memory,37,man,100,0.0,white,50R,U,1550.0,"['../stimuli/version1_gray_lm/id100_50R_U.png', '../stimuli/version1_gray_lm/id039_00C_C.png', '../stimuli/version1_gray_lm/id039_25L_D.png']",78026.0,0.0,11.0,2.0,encoding,man,039,"[1, 2]",white,"['00C', '25L']","['C', 'D']",,"{'muct_id': '280', 'lighting': 'u', 'race_guess': 'w', 'gender_guess': 'm', 'quality': '3', 'quality_eyes': '3', 'quality_mouth': '3', 'quality_ears': '3', 'quality_hair': '3', 'quality_neck': '3', 'facial_hair': '0.0', 'notes': None, 'race_common': 'white', 'gender_common': 'man'}","{'muct_id': '52', 'lighting': 'q', 'race_guess': 'w', 'gender_guess': 'm', 'quality': '3', 'quality_eyes': '3', 'quality_mouth': '3', 'quality_ears': '3', 'quality_hair': '3', 'quality_neck': '3', 'facial_hair': '0.0', 'notes': None, 'race_common': 'white', 'gender_common': 'man'}",,,,,,,,,,,,,,,,,,,,,,,,,,,,,,,,,,,,,,,,,,,,,,6258f1b94fa6a14369e42afc,6258ed6a796ee239fc08fb8f,60fd13ae344414eba986c9ed
2079,6258f210410f6008cca53b66,Chrome,,main_task,1.0,0.0,chris,"4/15/2022, 12:18:25 AM",hc3vbqkqkpoh4ff6y738,0.0-182.0,pilot_prolific_inform_memory,,,,,,,,3567.300000011921,../stimuli/version1_gray_lm/id097_50L_D.png,605565.0,0.0,197.0,27.0,retrieval,,,,,,,,,,,,,,,,,,,,,,,,,,097,"{'muct_id': '269', 'lighting': 'u', 'race_guess': 'b', 'gender_guess': 'm', 'quality': '3', 'quality_eyes': '3', 'quality_mouth': '3', 'quality_ears': '3', 'quality_hair': '3', 'quality_neck': '3', 'facial_hair': '0.0', 'notes': None, 'race_common': 'black', 'gender_common': 'man'}",,,,black,16,new,50L,D,,,,,,,,,,,,,,,,,,,,6258efa7c0091b19e2d31b64,6258ed6a796ee239fc08fb8e,61130a12d87efcd777a39fe7
2080,6258f213410f6008cca53b67,Chrome,2.0,main_task,1.0,2.0,chris,"4/14/2022, 9:18:26 PM",o49sfhdbmff3cgayln3k,0.0-8.0,pilot_prolific_inform_memory,39,woman,103,1.0,black,25L,D,2060.0,"['../stimuli/version1_gray_lm/id027_25R_U.png', '../stimuli/version1_gray_lm/id103_25L_D.png', '../stimuli/version1_gray_lm/id027_00C_C.png']",81014.0,0.0,13.0,3.0,encoding,woman,027,"[0, 2]",black,"['25R', '00C']","['U', 'C']",,"{'muct_id': '285', 'lighting': 'v', 'race_guess': 'b', 'gender_guess': 'w', 'quality': '3', 'quality_eyes': '3', 'quality_mouth': '3', 'quality_ears': '3', 'quality_hair': '3', 'quality_neck': '3', 'facial_hair': '0.0', 'notes': 'earrings', 'race_common': 'black', 'gender_common': 'woman'}","{'muct_id': '37', 'lighting': 'q', 'race_guess': 'b', 'gender_guess': 'w', 'quality': '3', 'quality_eyes': '3', 'quality_mouth': '3', 'quality_ears': '3', 'quality_hair': '3', 'quality_neck': '3', 'facial_hair': '0.0', 'notes': 'earrings', 'race_common': 'black', 'gender_common': 'woman'}",,,,,,,,,,,,,,,,,,,,,,,,,,,,,,,,,,,,,,,,,,,,,,6258f1b94fa6a14369e42afc,6258ed6a796ee239fc08fb8f,60fd13ae344414eba986c9ed
2081,6258f214410f6008cca53b68,Chrome,,main_task,1.0,0.0,chris,"4/15/2022, 12:18:29 AM",hc3vbqkqkpoh4ff6y738,0.0-184.0,pilot_prolific_inform_memory,,,,,,,,3330.5,../stimuli/version1_gray_lm/id053_25L_C.png,609421.0,0.0,199.0,28.0,retrieval,,,,,,,,,,,,,,,,,,,,,,,,,,053,"{'muct_id': '79', 'lighting': 'r', 'race_guess': 'i', 'gender_guess': 'm', 'quality': '2', 'quality_eyes': '2', 'quality_mouth': '3', 'quality_ears': '3', 'quality_hair': '2', 'quality_neck': '3', 'facial_hair': '0.0', 'notes': None, 'race_common': 'white', 'gender_common': 'man'}",,,,white,0,new,25L,C,,,,,,,,,,,,,,,,,,,,6258efa7c0091b19e2d31b64,6258ed6a796ee239fc08fb8e,61130a12d87efcd777a39fe7
2082,6258f215410f6008cca53b69,Chrome,3.0,main_task,0.0,1.0,chris,"4/14/2022, 9:18:28 PM",o49sfhdbmff3cgayln3k,0.0-10.0,pilot_prolific_inform_memory,40,man,105,0.0,black,25R,C,1390.0,"['../stimuli/version1_gray_lm/id105_25R_C.png', '../stimuli/version1_gray_lm/id021_00C_D.png', '../stimuli/version1_gray_lm/id021_25L_U.png']",83059.0,0.0,15.0,4.0,encoding,man,021,"[1, 2]",black,"['00C', '25L']","['D', 'U']",,"{'muct_id': '290', 'lighting': 't', 'race_guess': 'b', 'gender_guess': 'm', 'quality': '3', 'quality_eyes': '3', 'quality_mouth': '3', 'quality_ears': '3', 'quality_hair': '3', 'quality_neck': '3', 'facial_hair': '2.0', 'notes': None, 'race_common': 'black', 'gender_common': 'man'}","{'muct_id': '25', 'lighting': 'r', 'race_guess': 'b', 'gender_guess': 'm', 'quality': '3', 'quality_eyes': '3', 'quality_mouth': '3', 'quality_ears': '3', 'quality_hair': '3', 'quality_neck': '3', 'facial_hair': '2.0', 'notes': None, 'race_common': 'black', 'gender_common': 'man'}",,,,,,,,,,,,,,,,,,,,,,,,,,,,,,,,,,,,,,,,,,,,,,6258f1b94fa6a14369e42afc,6258ed6a796ee239fc08fb8f,60fd13ae344414eba986c9ed
2083,6258f217410f6008cca53b6a,Chrome,3.0,main_task,1.0,3.0,chris,"4/14/2022, 9:18:31 PM",o49sfhdbmff3cgayln3k,0.0-12.0,pilot_prolific_inform_memory,40,woman,102,2.0,white,50R,U,1771.0,"['../stimuli/version1_gray_lm/id031_50L_D.png', '../stimuli/version1_gray_lm/id031_00C_C.png', '../stimuli/version1_gray_lm/id102_50R_U.png']",85517.0,0.0,17.0,5.0,encoding,woman,031,"[0, 1]",white,"['50L', '00C']","['D', 'C']",,"{'muct_id': '283', 'lighting': 't', 'race_guess': 'i', 'gender_guess': 'w', 'quality': '3', 'quality_eyes': '3', 'quality_mouth': '3', 'quality_ears': '3', 'quality_hair': '3', 'quality_neck': '3', 'facial_hair': '0.0', 'notes': 'pottu', 'race_common': 'white', 'gender_common': 'woman'}","{'muct_id': '42', 'lighting': 'q', 'race_guess': 'u', 'gender_guess': 'w', 'quality': '2', 'quality_eyes': '3', 'quality_mouth': '3', 'quality_ears': '2', 'quality_hair': '3', 'quality_neck': '3', 'facial_hair': '0.0', 'notes': 'mouth', 'race_common': 'white', 'gender_common': 'woman'}",,,,,,,,,,,,,,,,,,,,,,,,,,,,,,,,,,,,,,,,,,,,,,6258f1b94fa6a14369e42afc,6258ed6a796ee239fc08fb8f,60fd13ae344414eba986c9ed
2084,6258f218410f6008cca53b6b,Chrome,,main_task,1.0,1.0,chris,"4/15/2022, 12:18:33 AM",hc3vbqkqkpoh4ff6y738,0.0-186.0,pilot_prolific_inform_memory,,,,,,,,3060.5999999940395,../stimuli/version1_gray_lm/id153_50R_D.png,613038.0,0.0,201.0,29.0,retrieval,,,,,,,,,,,,,,,,,,,,,,,076,oddity,woman,153,"{'muct_id': '437', 'lighting': 'x', 'race_guess': 'w', 'gender_guess': 'w', 'quality': '3', 'quality_eyes': '3', 'quality_mouth': '3', 'quality_ears': '3', 'quality_hair': '3', 'quality_neck': '3', 'facial_hair': '0.0', 'notes': 'hair', 'race_common': 'white', 'gender_common': 'woman'}",38,50R,D,white,90,old,50R,D,00C,0,,,,,,,,,,,,,,,,,,6258efa7c0091b19e2d31b64,6258ed6a796ee239fc08fb8e,61130a12d87efcd777a39fe7
2085,6258f218410f6008cca53b6c,Chrome,2.0,main_task,1.0,2.0,chris,"4/14/2022, 9:18:33 PM",mjtbq1k4664uh30113b2,0.0-2.0-0.0,pilot_prolific_inform_memory,39,man,107,1.0,latinx,50L,D,3505.0,"['../stimuli/version1_gray_lm/id108_50R_U.png', '../stimuli/version1_gray_lm/id107_50L_D.png', '../stimuli/version1_gray_lm/id108_00C_C.png']",329392.0,0.0,2.0,1.0,encoding_practice,woman,108,"[0, 2]",latinx,"['50R', '00C']","['U', 'C']",,,,,,,,,,,,,,,,,,,,,,,,,,,,,,,,,,,,,,,,,,,,,,,,,6258f0bcee6d36aadf3594fb,6258ed6a796ee239fc08fb8f,6104d73b7cdac0a47a905f0d
2086,6258f219410f6008cca53b6d,Chrome,2.0,main_task,1.0,2.0,chris,"4/14/2022, 9:18:33 PM",o49sfhdbmff3cgayln3k,0.0-14.0,pilot_prolific_inform_memory,39,man,112,1.0,black,25R,U,1649.0,"['../stimuli/version1_gray_lm/id058_00C_C.png', '../stimuli/version1_gray_lm/id112_25R_U.png', '../stimuli/version1_gray_lm/id058_25L_D.png']",87766.0,0.0,19.0,6.0,encoding,man,058,"[0, 2]",black,"['00C', '25L']","['C', 'D']",,"{'muct_id': '406', 'lighting': 'w', 'race_guess': 'b', 'gender_guess': 'm', 'quality': '3', 'quality_eyes': '3', 'quality_mouth': '3', 'quality_ears': '3', 'quality_hair': '3', 'quality_neck': '3', 'facial_hair': '1.0', 'notes': None, 'race_common': 'black', 'gender_common': 'man'}","{'muct_id': '84', 'lighting': 'q', 'race_guess': 'b', 'gender_guess': 'm', 'quality': '2', 'quality_eyes': '2', 'quality_mouth': '3', 'quality_ears': '3', 'quality_hair': '3', 'quality_neck': '3', 'facial_hair': '3.0', 'notes': 'beard', 'race_common': 'black', 'gender_common': 'man'}",,,,,,,,,,,,,,,,,,,,,,,,,,,,,,,,,,,,,,,,,,,,,,6258f1b94fa6a14369e42afc,6258ed6a796ee239fc08fb8f,60fd13ae344414eba986c9ed
2087,6258f21b410f6008cca53b6e,Chrome,,main_task,1.0,1.0,chris,"4/15/2022, 12:18:36 AM",hc3vbqkqkpoh4ff6y738,0.0-188.0,pilot_prolific_inform_memory,,,,,,,,2671.5999999940395,../stimuli/version1_gray_lm/id121_50L_C.png,616276.0,0.0,203.0,30.0,retrieval,,,,,,,,,,,,,,,,,,,,,,,064,oddity,man,121,"{'muct_id': '423', 'lighting': 'w', 'race_guess': 'b', 'gender_guess': 'm', 'quality': '3', 'quality_eyes': '3', 'quality_mouth': '3', 'quality_ears': '3', 'quality_hair': '3', 'quality_neck': '3', 'facial_hair': '1.0', 'notes': None, 'race_common': 'black', 'gender_common': 'man'}",17,50L,C,black,69,old,50L,C,00C,0,,,,,,,,,,,,,,,,,,6258efa7c0091b19e2d31b64,6258ed6a796ee239fc08fb8e,61130a12d87efcd777a39fe7
2088,6258f21b410f6008cca53b6f,Chrome,2.0,main_task,1.0,2.0,chris,"4/14/2022, 9:18:35 PM",o49sfhdbmff3cgayln3k,0.0-16.0,pilot_prolific_inform_memory,39,man,104,1.0,white,00C,D,1376.0,"['../stimuli/version1_gray_lm/id073_50L_C.png', '../stimuli/version1_gray_lm/id104_00C_D.png', '../stimuli/version1_gray_lm/id073_50R_U.png']",89816.0,0.0,21.0,7.0,encoding,man,073,"[0, 2]",white,"['50L', '50R']","['C', 'U']",,"{'muct_id': '287', 'lighting': 't', 'race_guess': 'w', 'gender_guess': 'm', 'quality': '3', 'quality_eyes': '3', 'quality_mouth': '3', 'quality_ears': '3', 'quality_hair': '3', 'quality_neck': '3', 'facial_hair': '2.0', 'notes': None, 'race_common': 'white', 'gender_common': 'man'}","{'muct_id': '225', 'lighting': 'u', 'race_guess': 'w', 'gender_guess': 'm', 'quality': '3', 'quality_eyes': '3', 'quality_mouth': '3', 'quality_ears': '3', 'quality_hair': '3', 'quality_neck': '3', 'facial_hair': '2.0', 'notes': None, 'race_common': 'white', 'gender_common': 'man'}",,,,,,,,,,,,,,,,,,,,,,,,,,,,,,,,,,,,,,,,,,,,,,6258f1b94fa6a14369e42afc,6258ed6a796ee239fc08fb8f,60fd13ae344414eba986c9ed
2089,6258f21e410f6008cca53b70,Chrome,2.0,main_task,1.0,2.0,chris,"4/14/2022, 9:18:38 PM",o49sfhdbmff3cgayln3k,0.0-18.0,pilot_prolific_inform_memory,39,woman,111,1.0,black,50L,D,2004.0,"['../stimuli/version1_gray_lm/id035_00C_C.png', '../stimuli/version1_gray_lm/id111_50L_D.png', '../stimuli/version1_gray_lm/id035_50R_U.png']",92504.0,0.0,23.0,8.0,encoding,woman,035,"[0, 2]",black,"['00C', '50R']","['C', 'U']",,"{'muct_id': '405', 'lighting': 'w', 'race_guess': 'b', 'gender_guess': 'w', 'quality': '3', 'quality_eyes': '3', 'quality_mouth': '3', 'quality_ears': '3', 'quality_hair': '3', 'quality_neck': '3', 'facial_hair': '0.0', 'notes': 'hair earrings', 'race_common': 'black', 'gender_common': 'woman'}","{'muct_id': '46', 'lighting': 'q', 'race_guess': 'b', 'gender_guess': 'w', 'quality': '3', 'quality_eyes': '3', 'quality_mouth': '3', 'quality_ears': '3', 'quality_hair': '3', 'quality_neck': '3', 'facial_hair': '0.0', 'notes': 'earrings', 'race_common': 'black', 'gender_common': 'woman'}",,,,,,,,,,,,,,,,,,,,,,,,,,,,,,,,,,,,,,,,,,,,,,6258f1b94fa6a14369e42afc,6258ed6a796ee239fc08fb8f,60fd13ae344414eba986c9ed
2090,6258f21e410f6008cca53b71,Chrome,,main_task,0.0,0.0,chris,"4/15/2022, 12:18:39 AM",hc3vbqkqkpoh4ff6y738,0.0-190.0,pilot_prolific_inform_memory,,,,,,,,3111.699999988079,../stimuli/version1_gray_lm/id081_00C_D.png,619799.0,0.0,205.0,31.0,retrieval,,,,,,,,,,,,,,,,,,,,,,,,,,081,"{'muct_id': '241', 'lighting': 't', 'race_guess': 'u', 'gender_guess': 'm', 'quality': '3', 'quality_eyes': '3', 'quality_mouth': '3', 'quality_ears': '3', 'quality_hair': '3', 'quality_neck': '3', 'facial_hair': '1.0', 'notes': 'mouth', 'race_common': 'black', 'gender_common': 'man'}",,,,black,92,new,00C,D,,,,,,,,,,,,,,,,,,,,6258efa7c0091b19e2d31b64,6258ed6a796ee239fc08fb8e,61130a12d87efcd777a39fe7
2091,6258f220410f6008cca53b72,Chrome,1.0,main_task,1.0,1.0,chris,"4/14/2022, 9:18:42 PM",mjtbq1k4664uh30113b2,0.0-2.1-0.1,pilot_prolific_inform_memory,37,woman,108,0.0,latinx,25L,U,3959.0,"['../stimuli/version1_gray_lm/id108_25L_U.png', '../stimuli/version1_gray_lm/id106_25R_D.png', '../stimuli/version1_gray_lm/id106_00C_C.png']",337863.0,0.0,4.0,2.0,encoding_practice,woman,106,"[1, 2]",latinx,"['25R', '00C']","['D', 'C']",,,,,,,,,,,,,,,,,,,,,,,,,,,,,,,,,,,,,,,,,,,,,,,,,6258f0bcee6d36aadf3594fb,6258ed6a796ee239fc08fb8f,6104d73b7cdac0a47a905f0d
2092,6258f221410f6008cca53b73,Chrome,2.0,main_task,0.0,3.0,chris,"4/14/2022, 9:18:41 PM",o49sfhdbmff3cgayln3k,0.0-20.0,pilot_prolific_inform_memory,39,woman,109,2.0,white,00C,C,2438.0,"['../stimuli/version1_gray_lm/id018_25R_D.png', '../stimuli/version1_gray_lm/id018_50L_U.png', '../stimuli/version1_gray_lm/id109_00C_C.png']",95545.0,0.0,25.0,9.0,encoding,woman,018,"[0, 1]",white,"['25R', '50L']","['D', 'U']",,"{'muct_id': '401', 'lighting': 'w', 'race_guess': 'w', 'gender_guess': 'w', 'quality': '3', 'quality_eyes': '3', 'quality_mouth': '3', 'quality_ears': '3', 'quality_hair': '3', 'quality_neck': '3', 'facial_hair': '0.0', 'notes': 'mouth', 'race_common': 'white', 'gender_common': 'woman'}","{'muct_id': '21', 'lighting': 'q', 'race_guess': 'w', 'gender_guess': 'w', 'quality': '3', 'quality_eyes': '3', 'quality_mouth': '3', 'quality_ears': '3', 'quality_hair': '3', 'quality_neck': '3', 'facial_hair': '0.0', 'notes': None, 'race_common': 'white', 'gender_common': 'woman'}",,,,,,,,,,,,,,,,,,,,,,,,,,,,,,,,,,,,,,,,,,,,,,6258f1b94fa6a14369e42afc,6258ed6a796ee239fc08fb8f,60fd13ae344414eba986c9ed
2093,6258f224410f6008cca53b74,Chrome,1.0,main_task,1.0,1.0,chris,"4/14/2022, 9:18:43 PM",o49sfhdbmff3cgayln3k,0.0-22.0,pilot_prolific_inform_memory,37,man,117,0.0,black,25L,U,1869.0,"['../stimuli/version1_gray_lm/id117_25L_U.png', '../stimuli/version1_gray_lm/id090_50R_D.png', '../stimuli/version1_gray_lm/id090_00C_C.png']",97991.0,0.0,27.0,10.0,encoding,man,090,"[1, 2]",black,"['50R', '00C']","['D', 'C']",,"{'muct_id': '417', 'lighting': 'w', 'race_guess': 'b', 'gender_guess': 'm', 'quality': '3', 'quality_eyes': '3', 'quality_mouth': '3', 'quality_ears': '3', 'quality_hair': '3', 'quality_neck': '3', 'facial_hair': '1.0', 'notes': 'mouth', 'race_common': 'black', 'gender_common': 'man'}","{'muct_id': '259', 'lighting': 'v', 'race_guess': 'b', 'gender_guess': 'm', 'quality': '3', 'quality_eyes': '3', 'quality_mouth': '3', 'quality_ears': '3', 'quality_hair': '3', 'quality_neck': '3', 'facial_hair': '2.0', 'notes': None, 'race_common': 'black', 'gender_common': 'man'}",,,,,,,,,,,,,,,,,,,,,,,,,,,,,,,,,,,,,,,,,,,,,,6258f1b94fa6a14369e42afc,6258ed6a796ee239fc08fb8f,60fd13ae344414eba986c9ed
2094,6258f224410f6008cca53b75,Chrome,,main_task,1.0,0.0,chris,"4/15/2022, 12:18:45 AM",hc3vbqkqkpoh4ff6y738,0.0-192.0,pilot_prolific_inform_memory,,,,,,,,4707.700000017881,../stimuli/version1_gray_lm/id020_00C_D.png,625072.0,0.0,207.0,32.0,retrieval,,,,,,,,,,,,,,,,,,,,,,,,,,020,"{'muct_id': '24', 'lighting': 'q', 'race_guess': 'b', 'gender_guess': 'w', 'quality': '3', 'quality_eyes': '3', 'quality_mouth': '3', 'quality_ears': '3', 'quality_hair': '3', 'quality_neck': '3', 'facial_hair': '0.0', 'notes': None, 'race_common': 'black', 'gender_common': 'woman'}",,,,black,24,new,00C,D,,,,,,,,,,,,,,,,,,,,6258efa7c0091b19e2d31b64,6258ed6a796ee239fc08fb8e,61130a12d87efcd777a39fe7
2095,6258f224410f6008cca53b76,Chrome,3.0,main_task,1.0,3.0,chris,"4/14/2022, 9:18:45 PM",mjtbq1k4664uh30113b2,0.0-2.2-0.2,pilot_prolific_inform_memory,40,woman,108,2.0,latinx,25R,D,2125.0,"['../stimuli/version1_gray_lm/id107_50L_U.png', '../stimuli/version1_gray_lm/id107_00C_C.png', '../stimuli/version1_gray_lm/id108_25R_D.png']",341579.0,0.0,6.0,3.0,encoding_practice,man,107,"[0, 1]",latinx,"['50L', '00C']","['U', 'C']",1.0,,,,,,,,,,,,,,,,,,,,,,,,,,,,,,,,,,,,,,,,,,,,,,,,6258f0bcee6d36aadf3594fb,6258ed6a796ee239fc08fb8f,6104d73b7cdac0a47a905f0d
2096,6258f227410f6008cca53b77,Chrome,1.0,main_task,1.0,1.0,chris,"4/14/2022, 9:18:47 PM",o49sfhdbmff3cgayln3k,0.0-24.0,pilot_prolific_inform_memory,37,woman,114,0.0,white,50R,U,2505.0,"['../stimuli/version1_gray_lm/id114_50R_U.png', '../stimuli/version1_gray_lm/id029_25L_D.png', '../stimuli/version1_gray_lm/id029_00C_C.png']",101114.0,0.0,29.0,11.0,encoding,woman,029,"[1, 2]",white,"['25L', '00C']","['D', 'C']",,"{'muct_id': '410', 'lighting': 'w', 'race_guess': 'w', 'gender_guess': 'w', 'quality': '3', 'quality_eyes': '3', 'quality_mouth': '3', 'quality_ears': '3', 'quality_hair': '3', 'quality_neck': '3', 'facial_hair': '0.0', 'notes': 'makeup mouth', 'race_common': 'white', 'gender_common': 'woman'}","{'muct_id': '39', 'lighting': 'r', 'race_guess': 'w', 'gender_guess': 'w', 'quality': '3', 'quality_eyes': '3', 'quality_mouth': '3', 'quality_ears': '3', 'quality_hair': '3', 'quality_neck': '3', 'facial_hair': '0.0', 'notes': 'earrings hair', 'race_common': 'white', 'gender_common': 'woman'}",,,,,,,,,,,,,,,,,,,,,,,,,,,,,,,,,,,,,,,,,,,,,,6258f1b94fa6a14369e42afc,6258ed6a796ee239fc08fb8f,60fd13ae344414eba986c9ed
