,_id,browser,choice,collection,correct,correct_response,database,datetime,experiment_id,internal_node_id,iteration,key_press,oddity_gender,oddity_identity,oddity_index,oddity_race,oddity_tiltLR,oddity_tiltUD,rt,stimulus,time_elapsed,timed_out,trial_index,trial_number,trial_type,typicals_gender,typicals_identity,typicals_indices,typicals_race,typicals_tiltsLR,typicals_tiltsUD,practice_threshold_met,oddity_meta,typicals_meta,button_pressed,last_trial_type,prediction,choice_category,choice_object,oddity_category,oddity_name,oddity_type,stimulus_response_map,typical_category,typical_indices,typical_name,variation_level,encoding_pair,encoding_type,gender,identity,meta,original_index,original_tiltLR,original_tiltUD,race,response,retrieval_condition,tiltLR,tiltUD,tilt_change,tilt_difference,original_tilt,encoding_accuracy,encoding_avg_rt,encoding_n_trials,experimental_duration,filler_accuracy,filler_avg_rt,filler_n_trials,params,retrieval_accuracy,retrieval_avg_rt,retrieval_n_trials,total_bonus,total_payment,age,gender_other,latinx,session_id,study_id,subject_id
0,6251bbf8410f6008cca53347,Chrome,1.0,main_task,1.0,1.0,chris,"4/9/2022, 10:01:44 AM",37035zqkhoqsrglo7lds,0.0-2.0-0.0,final_pilot_testing,37.0,woman,108,0.0,latinx,00C,C,2638.0,"['../stimuli/version1_gray_lm/id108_00C_C.png', '../stimuli/version1_gray_lm/id107_25R_U.png', '../stimuli/version1_gray_lm/id107_25L_D.png']",173664.0,0.0,2.0,1.0,encoding_practice,man,107,"[1, 2]",latinx,"['25R', '25L']","['U', 'D']",,,,,,,,,,,,,,,,,,,,,,,,,,,,,,,,,,,,,,,,,,,,,,,,,,,
1,6251bbfc410f6008cca53348,Chrome,1.0,main_task,1.0,1.0,chris,"4/9/2022, 10:01:48 AM",37035zqkhoqsrglo7lds,0.0-2.1-0.1,final_pilot_testing,37.0,man,107,0.0,latinx,25L,U,3374.0,"['../stimuli/version1_gray_lm/id107_25L_U.png', '../stimuli/version1_gray_lm/id108_00C_D.png', '../stimuli/version1_gray_lm/id108_25R_C.png']",177950.0,0.0,4.0,2.0,encoding_practice,woman,108,"[1, 2]",latinx,"['00C', '25R']","['D', 'C']",,,,,,,,,,,,,,,,,,,,,,,,,,,,,,,,,,,,,,,,,,,,,,,,,,,
2,6251bc01410f6008cca53349,Chrome,1.0,main_task,1.0,1.0,chris,"4/9/2022, 10:01:53 AM",37035zqkhoqsrglo7lds,0.0-2.2-0.2,final_pilot_testing,37.0,woman,106,0.0,latinx,25L,C,3556.0,"['../stimuli/version1_gray_lm/id106_25L_C.png', '../stimuli/version1_gray_lm/id108_50R_D.png', '../stimuli/version1_gray_lm/id108_00C_U.png']",182036.0,0.0,6.0,3.0,encoding_practice,woman,108,"[1, 2]",latinx,"['50R', '00C']","['D', 'U']",1.0,,,,,,,,,,,,,,,,,,,,,,,,,,,,,,,,,,,,,,,,,,,,,,,,,,
3,6251bc1b410f6008cca5334a,Chrome,3.0,main_task,1.0,3.0,chris,"4/9/2022, 10:02:18 AM",37035zqkhoqsrglo7lds,0.0-4.0,final_pilot_testing,40.0,man,105,2.0,black,25R,C,5157.0,"['../stimuli/version1_gray_lm/id065_25L_U.png', '../stimuli/version1_gray_lm/id065_00C_D.png', '../stimuli/version1_gray_lm/id105_25R_C.png']",208026.0,0.0,9.0,1.0,encoding,man,065,"[0, 1]",black,"['25L', '00C']","['U', 'D']",,"{'muct_id': '290', 'lighting': 't', 'race_guess': 'b', 'gender_guess': 'm', 'quality': '3', 'quality_eyes': '3', 'quality_mouth': '3', 'quality_ears': '3', 'quality_hair': '3', 'quality_neck': '3', 'facial_hair': '2.0', 'notes': None, 'race_common': 'black', 'gender_common': 'man'}","{'muct_id': '206', 'lighting': 't', 'race_guess': 'b', 'gender_guess': 'm', 'quality': '3', 'quality_eyes': '3', 'quality_mouth': '3', 'quality_ears': '3', 'quality_hair': '3', 'quality_neck': '3', 'facial_hair': '1.0', 'notes': None, 'race_common': 'black', 'gender_common': 'man'}",,,,,,,,,,,,,,,,,,,,,,,,,,,,,,,,,,,,,,,,,,,,,,,,
4,6251bc1d410f6008cca5334b,Chrome,3.0,main_task,1.0,3.0,chris,"4/9/2022, 10:02:21 AM",37035zqkhoqsrglo7lds,0.0-6.0,final_pilot_testing,40.0,woman,101,2.0,white,00C,U,1858.0,"['../stimuli/version1_gray_lm/id029_50R_C.png', '../stimuli/version1_gray_lm/id029_50L_D.png', '../stimuli/version1_gray_lm/id101_00C_U.png']",210745.0,0.0,11.0,2.0,encoding,woman,029,"[0, 1]",white,"['50R', '50L']","['C', 'D']",,"{'muct_id': '281', 'lighting': 't', 'race_guess': 'w', 'gender_guess': 'w', 'quality': '3', 'quality_eyes': '3', 'quality_mouth': '3', 'quality_ears': '3', 'quality_hair': '3', 'quality_neck': '3', 'facial_hair': '0.0', 'notes': None, 'race_common': 'white', 'gender_common': 'woman'}","{'muct_id': '39', 'lighting': 'r', 'race_guess': 'w', 'gender_guess': 'w', 'quality': '3', 'quality_eyes': '3', 'quality_mouth': '3', 'quality_ears': '3', 'quality_hair': '3', 'quality_neck': '3', 'facial_hair': '0.0', 'notes': 'earrings hair', 'race_common': 'white', 'gender_common': 'woman'}",,,,,,,,,,,,,,,,,,,,,,,,,,,,,,,,,,,,,,,,,,,,,,,,
5,6251bc22410f6008cca5334c,Chrome,2.0,main_task,1.0,2.0,chris,"4/9/2022, 10:02:25 AM",37035zqkhoqsrglo7lds,0.0-8.0,final_pilot_testing,39.0,woman,103,1.0,black,00C,D,3706.0,"['../stimuli/version1_gray_lm/id027_50L_C.png', '../stimuli/version1_gray_lm/id103_00C_D.png', '../stimuli/version1_gray_lm/id027_25R_U.png']",214977.0,0.0,13.0,3.0,encoding,woman,027,"[0, 2]",black,"['50L', '25R']","['C', 'U']",,"{'muct_id': '285', 'lighting': 'v', 'race_guess': 'b', 'gender_guess': 'w', 'quality': '3', 'quality_eyes': '3', 'quality_mouth': '3', 'quality_ears': '3', 'quality_hair': '3', 'quality_neck': '3', 'facial_hair': '0.0', 'notes': 'earrings', 'race_common': 'black', 'gender_common': 'woman'}","{'muct_id': '37', 'lighting': 'q', 'race_guess': 'b', 'gender_guess': 'w', 'quality': '3', 'quality_eyes': '3', 'quality_mouth': '3', 'quality_ears': '3', 'quality_hair': '3', 'quality_neck': '3', 'facial_hair': '0.0', 'notes': 'earrings', 'race_common': 'black', 'gender_common': 'woman'}",,,,,,,,,,,,,,,,,,,,,,,,,,,,,,,,,,,,,,,,,,,,,,,,
6,6251bc25410f6008cca5334d,Chrome,1.0,main_task,1.0,1.0,chris,"4/9/2022, 10:02:29 AM",37035zqkhoqsrglo7lds,0.0-10.0,final_pilot_testing,37.0,man,100,0.0,white,25R,D,2749.0,"['../stimuli/version1_gray_lm/id100_25R_D.png', '../stimuli/version1_gray_lm/id041_00C_C.png', '../stimuli/version1_gray_lm/id041_50L_U.png']",218339.0,0.0,15.0,4.0,encoding,man,041,"[1, 2]",white,"['00C', '50L']","['C', 'U']",,"{'muct_id': '280', 'lighting': 'u', 'race_guess': 'w', 'gender_guess': 'm', 'quality': '3', 'quality_eyes': '3', 'quality_mouth': '3', 'quality_ears': '3', 'quality_hair': '3', 'quality_neck': '3', 'facial_hair': '0.0', 'notes': None, 'race_common': 'white', 'gender_common': 'man'}","{'muct_id': '56', 'lighting': 'q', 'race_guess': 'w', 'gender_guess': 'm', 'quality': '3', 'quality_eyes': '3', 'quality_mouth': '3', 'quality_ears': '3', 'quality_hair': '3', 'quality_neck': '3', 'facial_hair': '0.0', 'notes': None, 'race_common': 'white', 'gender_common': 'man'}",,,,,,,,,,,,,,,,,,,,,,,,,,,,,,,,,,,,,,,,,,,,,,,,
7,6251bc28410f6008cca5334e,Chrome,2.0,main_task,1.0,2.0,chris,"4/9/2022, 10:02:32 AM",37035zqkhoqsrglo7lds,0.0-12.0,final_pilot_testing,39.0,man,104,1.0,white,50R,C,2778.0,"['../stimuli/version1_gray_lm/id074_00C_U.png', '../stimuli/version1_gray_lm/id104_50R_C.png', '../stimuli/version1_gray_lm/id074_25L_D.png']",221568.0,0.0,17.0,5.0,encoding,man,074,"[0, 2]",white,"['00C', '25L']","['U', 'D']",,"{'muct_id': '287', 'lighting': 't', 'race_guess': 'w', 'gender_guess': 'm', 'quality': '3', 'quality_eyes': '3', 'quality_mouth': '3', 'quality_ears': '3', 'quality_hair': '3', 'quality_neck': '3', 'facial_hair': '2.0', 'notes': None, 'race_common': 'white', 'gender_common': 'man'}","{'muct_id': '229', 'lighting': 't', 'race_guess': 'w', 'gender_guess': 'm', 'quality': '3', 'quality_eyes': '3', 'quality_mouth': '3', 'quality_ears': '3', 'quality_hair': '3', 'quality_neck': '3', 'facial_hair': '2.0', 'notes': 'mouth', 'race_common': 'white', 'gender_common': 'man'}",,,,,,,,,,,,,,,,,,,,,,,,,,,,,,,,,,,,,,,,,,,,,,,,
8,6251bc2d410f6008cca5334f,Chrome,2.0,main_task,1.0,2.0,chris,"4/9/2022, 10:02:37 AM",37035zqkhoqsrglo7lds,0.0-14.0,final_pilot_testing,39.0,woman,102,1.0,white,00C,D,4183.0,"['../stimuli/version1_gray_lm/id084_50R_U.png', '../stimuli/version1_gray_lm/id102_00C_D.png', '../stimuli/version1_gray_lm/id084_25L_C.png']",226170.0,0.0,19.0,6.0,encoding,woman,084,"[0, 2]",white,"['50R', '25L']","['U', 'C']",,"{'muct_id': '283', 'lighting': 't', 'race_guess': 'i', 'gender_guess': 'w', 'quality': '3', 'quality_eyes': '3', 'quality_mouth': '3', 'quality_ears': '3', 'quality_hair': '3', 'quality_neck': '3', 'facial_hair': '0.0', 'notes': 'pottu', 'race_common': 'white', 'gender_common': 'woman'}","{'muct_id': '248', 'lighting': 'u', 'race_guess': 'w', 'gender_guess': 'w', 'quality': '3', 'quality_eyes': '3', 'quality_mouth': '3', 'quality_ears': '3', 'quality_hair': '3', 'quality_neck': '3', 'facial_hair': '0.0', 'notes': None, 'race_common': 'white', 'gender_common': 'woman'}",,,,,,,,,,,,,,,,,,,,,,,,,,,,,,,,,,,,,,,,,,,,,,,,
9,6251bc2f410f6008cca53350,Chrome,1.0,main_task,0.0,3.0,chris,"4/9/2022, 10:02:39 AM",37035zqkhoqsrglo7lds,0.0-16.0,final_pilot_testing,37.0,man,112,2.0,black,25L,D,2057.0,"['../stimuli/version1_gray_lm/id064_00C_C.png', '../stimuli/version1_gray_lm/id064_50R_U.png', '../stimuli/version1_gray_lm/id112_25L_D.png']",228676.0,0.0,21.0,7.0,encoding,man,064,"[0, 1]",black,"['00C', '50R']","['C', 'U']",,"{'muct_id': '406', 'lighting': 'w', 'race_guess': 'b', 'gender_guess': 'm', 'quality': '3', 'quality_eyes': '3', 'quality_mouth': '3', 'quality_ears': '3', 'quality_hair': '3', 'quality_neck': '3', 'facial_hair': '1.0', 'notes': None, 'race_common': 'black', 'gender_common': 'man'}","{'muct_id': '204', 'lighting': 't', 'race_guess': 'b', 'gender_guess': 'm', 'quality': '3', 'quality_eyes': '3', 'quality_mouth': '3', 'quality_ears': '3', 'quality_hair': '3', 'quality_neck': '3', 'facial_hair': '1.0', 'notes': None, 'race_common': 'black', 'gender_common': 'man'}",,,,,,,,,,,,,,,,,,,,,,,,,,,,,,,,,,,,,,,,,,,,,,,,
10,6251bc33410f6008cca53351,Chrome,1.0,main_task,1.0,1.0,chris,"4/9/2022, 10:02:43 AM",37035zqkhoqsrglo7lds,0.0-18.0,final_pilot_testing,37.0,woman,111,0.0,black,25R,U,2985.0,"['../stimuli/version1_gray_lm/id111_25R_U.png', '../stimuli/version1_gray_lm/id077_50L_C.png', '../stimuli/version1_gray_lm/id077_00C_D.png']",232223.0,0.0,23.0,8.0,encoding,woman,077,"[1, 2]",black,"['50L', '00C']","['C', 'D']",,"{'muct_id': '405', 'lighting': 'w', 'race_guess': 'b', 'gender_guess': 'w', 'quality': '3', 'quality_eyes': '3', 'quality_mouth': '3', 'quality_ears': '3', 'quality_hair': '3', 'quality_neck': '3', 'facial_hair': '0.0', 'notes': 'hair earrings', 'race_common': 'black', 'gender_common': 'woman'}","{'muct_id': '235', 'lighting': 'u', 'race_guess': 'b', 'gender_guess': 'w', 'quality': '3', 'quality_eyes': '3', 'quality_mouth': '3', 'quality_ears': '3', 'quality_hair': '3', 'quality_neck': '3', 'facial_hair': '0.0', 'notes': 'earrings', 'race_common': 'black', 'gender_common': 'woman'}",,,,,,,,,,,,,,,,,,,,,,,,,,,,,,,,,,,,,,,,,,,,,,,,
11,6251bc37410f6008cca53352,Chrome,1.0,main_task,1.0,1.0,chris,"4/9/2022, 10:02:47 AM",37035zqkhoqsrglo7lds,0.0-20.0,final_pilot_testing,37.0,man,117,0.0,black,50R,U,3760.0,"['../stimuli/version1_gray_lm/id117_50R_U.png', '../stimuli/version1_gray_lm/id058_50L_D.png', '../stimuli/version1_gray_lm/id058_00C_C.png']",236472.0,0.0,25.0,9.0,encoding,man,058,"[1, 2]",black,"['50L', '00C']","['D', 'C']",,"{'muct_id': '417', 'lighting': 'w', 'race_guess': 'b', 'gender_guess': 'm', 'quality': '3', 'quality_eyes': '3', 'quality_mouth': '3', 'quality_ears': '3', 'quality_hair': '3', 'quality_neck': '3', 'facial_hair': '1.0', 'notes': 'mouth', 'race_common': 'black', 'gender_common': 'man'}","{'muct_id': '84', 'lighting': 'q', 'race_guess': 'b', 'gender_guess': 'm', 'quality': '2', 'quality_eyes': '2', 'quality_mouth': '3', 'quality_ears': '3', 'quality_hair': '3', 'quality_neck': '3', 'facial_hair': '3.0', 'notes': 'beard', 'race_common': 'black', 'gender_common': 'man'}",,,,,,,,,,,,,,,,,,,,,,,,,,,,,,,,,,,,,,,,,,,,,,,,
12,6251bc3d410f6008cca53353,Chrome,1.0,main_task,1.0,1.0,chris,"4/9/2022, 10:02:53 AM",37035zqkhoqsrglo7lds,0.0-22.0,final_pilot_testing,37.0,woman,114,0.0,white,25L,D,5795.0,"['../stimuli/version1_gray_lm/id114_25L_D.png', '../stimuli/version1_gray_lm/id007_25R_U.png', '../stimuli/version1_gray_lm/id007_00C_C.png']",242674.0,0.0,27.0,10.0,encoding,woman,007,"[1, 2]",white,"['25R', '00C']","['U', 'C']",,"{'muct_id': '410', 'lighting': 'w', 'race_guess': 'w', 'gender_guess': 'w', 'quality': '3', 'quality_eyes': '3', 'quality_mouth': '3', 'quality_ears': '3', 'quality_hair': '3', 'quality_neck': '3', 'facial_hair': '0.0', 'notes': 'makeup mouth', 'race_common': 'white', 'gender_common': 'woman'}","{'muct_id': '7', 'lighting': 's', 'race_guess': 'u', 'gender_guess': 'w', 'quality': '3', 'quality_eyes': '3', 'quality_mouth': '3', 'quality_ears': '3', 'quality_hair': '3', 'quality_neck': '3', 'facial_hair': '0.0', 'notes': None, 'race_common': 'white', 'gender_common': 'woman'}",,,,,,,,,,,,,,,,,,,,,,,,,,,,,,,,,,,,,,,,,,,,,,,,
13,6251bc42410f6008cca53354,Chrome,1.0,main_task,1.0,1.0,chris,"4/9/2022, 10:02:58 AM",37035zqkhoqsrglo7lds,0.0-24.0,final_pilot_testing,37.0,woman,109,0.0,white,00C,C,4435.0,"['../stimuli/version1_gray_lm/id109_00C_C.png', '../stimuli/version1_gray_lm/id013_25R_D.png', '../stimuli/version1_gray_lm/id013_25L_U.png']",247498.0,0.0,29.0,11.0,encoding,woman,013,"[1, 2]",white,"['25R', '25L']","['D', 'U']",,"{'muct_id': '401', 'lighting': 'w', 'race_guess': 'w', 'gender_guess': 'w', 'quality': '3', 'quality_eyes': '3', 'quality_mouth': '3', 'quality_ears': '3', 'quality_hair': '3', 'quality_neck': '3', 'facial_hair': '0.0', 'notes': 'mouth', 'race_common': 'white', 'gender_common': 'woman'}","{'muct_id': '14', 'lighting': 'q', 'race_guess': 'w', 'gender_guess': 'w', 'quality': '3', 'quality_eyes': '3', 'quality_mouth': '3', 'quality_ears': '3', 'quality_hair': '3', 'quality_neck': '3', 'facial_hair': '0.0', 'notes': None, 'race_common': 'white', 'gender_common': 'woman'}",,,,,,,,,,,,,,,,,,,,,,,,,,,,,,,,,,,,,,,,,,,,,,,,
14,6251bc4c410f6008cca53355,Chrome,,main_task,0.0,1.0,chris,"4/9/2022, 10:03:08 AM",37035zqkhoqsrglo7lds,0.0-26.0,final_pilot_testing,,man,113,0.0,black,50R,C,0.0,"['../stimuli/version1_gray_lm/id113_50R_C.png', '../stimuli/version1_gray_lm/id056_00C_U.png', '../stimuli/version1_gray_lm/id056_50L_D.png']",257904.0,1.0,31.0,12.0,encoding,man,056,"[1, 2]",black,"['00C', '50L']","['U', 'D']",,"{'muct_id': '407', 'lighting': 'x', 'race_guess': 'u', 'gender_guess': 'm', 'quality': '3', 'quality_eyes': '3', 'quality_mouth': '3', 'quality_ears': '3', 'quality_hair': '3', 'quality_neck': '3', 'facial_hair': '3.0', 'notes': 'beard', 'race_common': 'black', 'gender_common': 'man'}","{'muct_id': '82', 'lighting': 'q', 'race_guess': 'b', 'gender_guess': 'm', 'quality': '3', 'quality_eyes': '3', 'quality_mouth': '3', 'quality_ears': '3', 'quality_hair': '3', 'quality_neck': '3', 'facial_hair': '1.0', 'notes': None, 'race_common': 'black', 'gender_common': 'man'}",,,,,,,,,,,,,,,,,,,,,,,,,,,,,,,,,,,,,,,,,,,,,,,,
15,6251bc53410f6008cca53356,Chrome,2.0,main_task,1.0,2.0,chris,"4/9/2022, 10:03:15 AM",37035zqkhoqsrglo7lds,0.0-28.0,final_pilot_testing,39,man,116,1.0,white,00C,U,5573.0,"['../stimuli/version1_gray_lm/id039_25R_D.png', '../stimuli/version1_gray_lm/id116_00C_U.png', '../stimuli/version1_gray_lm/id039_50L_C.png']",264268.0,0.0,33.0,13.0,encoding,man,039,"[0, 2]",white,"['25R', '50L']","['D', 'C']",,"{'muct_id': '414', 'lighting': 'w', 'race_guess': 'w', 'gender_guess': 'm', 'quality': '3', 'quality_eyes': '3', 'quality_mouth': '3', 'quality_ears': '3', 'quality_hair': '3', 'quality_neck': '3', 'facial_hair': '0.0', 'notes': None, 'race_common': 'white', 'gender_common': 'man'}","{'muct_id': '52', 'lighting': 'q', 'race_guess': 'w', 'gender_guess': 'm', 'quality': '3', 'quality_eyes': '3', 'quality_mouth': '3', 'quality_ears': '3', 'quality_hair': '3', 'quality_neck': '3', 'facial_hair': '0.0', 'notes': None, 'race_common': 'white', 'gender_common': 'man'}",,,,,,,,,,,,,,,,,,,,,,,,,,,,,,,,,,,,,,,,,,,,,,,,
16,6251bc56410f6008cca53357,Chrome,3.0,main_task,1.0,3.0,chris,"4/9/2022, 10:03:18 AM",37035zqkhoqsrglo7lds,0.0-30.0,final_pilot_testing,40,man,118,2.0,black,00C,U,2316.0,"['../stimuli/version1_gray_lm/id001_50L_C.png', '../stimuli/version1_gray_lm/id001_25R_D.png', '../stimuli/version1_gray_lm/id118_00C_U.png']",267080.0,0.0,35.0,14.0,encoding,man,001,"[0, 1]",black,"['50L', '25R']","['C', 'D']",,"{'muct_id': '419', 'lighting': 'x', 'race_guess': 'b', 'gender_guess': 'm', 'quality': '3', 'quality_eyes': '3', 'quality_mouth': '3', 'quality_ears': '3', 'quality_hair': '3', 'quality_neck': '3', 'facial_hair': '1.0', 'notes': None, 'race_common': 'black', 'gender_common': 'man'}","{'muct_id': '1', 'lighting': 'q', 'race_guess': 'b', 'gender_guess': 'm', 'quality': '3', 'quality_eyes': '3', 'quality_mouth': '3', 'quality_ears': '3', 'quality_hair': '3', 'quality_neck': '3', 'facial_hair': '1.0', 'notes': None, 'race_common': 'black', 'gender_common': 'man'}",,,,,,,,,,,,,,,,,,,,,,,,,,,,,,,,,,,,,,,,,,,,,,,,
17,6251bc5b410f6008cca53358,Chrome,2.0,main_task,1.0,2.0,chris,"4/9/2022, 10:03:23 AM",37035zqkhoqsrglo7lds,0.0-32.0,final_pilot_testing,39,man,115,1.0,white,00C,U,4782.0,"['../stimuli/version1_gray_lm/id080_50L_D.png', '../stimuli/version1_gray_lm/id115_00C_U.png', '../stimuli/version1_gray_lm/id080_50R_C.png']",272598.0,0.0,37.0,15.0,encoding,man,080,"[0, 2]",white,"['50L', '50R']","['D', 'C']",,"{'muct_id': '412', 'lighting': 'x', 'race_guess': 'w', 'gender_guess': 'm', 'quality': '3', 'quality_eyes': '3', 'quality_mouth': '3', 'quality_ears': '3', 'quality_hair': '3', 'quality_neck': '3', 'facial_hair': '0.0', 'notes': None, 'race_common': 'white', 'gender_common': 'man'}","{'muct_id': '240', 'lighting': 'u', 'race_guess': 'w', 'gender_guess': 'm', 'quality': '3', 'quality_eyes': '3', 'quality_mouth': '3', 'quality_ears': '3', 'quality_hair': '3', 'quality_neck': '3', 'facial_hair': '0.0', 'notes': 'mouth', 'race_common': 'white', 'gender_common': 'man'}",,,,,,,,,,,,,,,,,,,,,,,,,,,,,,,,,,,,,,,,,,,,,,,,
18,6251bc5f410f6008cca53359,Chrome,1.0,main_task,1.0,1.0,chris,"4/9/2022, 10:03:27 AM",37035zqkhoqsrglo7lds,0.0-34.0,final_pilot_testing,37,man,119,0.0,black,50L,U,3363.0,"['../stimuli/version1_gray_lm/id119_50L_U.png', '../stimuli/version1_gray_lm/id097_50R_C.png', '../stimuli/version1_gray_lm/id097_00C_D.png']",276315.0,0.0,39.0,16.0,encoding,man,097,"[1, 2]",black,"['50R', '00C']","['C', 'D']",,"{'muct_id': '420', 'lighting': 'w', 'race_guess': 'b', 'gender_guess': 'm', 'quality': '3', 'quality_eyes': '3', 'quality_mouth': '3', 'quality_ears': '3', 'quality_hair': '3', 'quality_neck': '3', 'facial_hair': '0.0', 'notes': None, 'race_common': 'black', 'gender_common': 'man'}","{'muct_id': '269', 'lighting': 'u', 'race_guess': 'b', 'gender_guess': 'm', 'quality': '3', 'quality_eyes': '3', 'quality_mouth': '3', 'quality_ears': '3', 'quality_hair': '3', 'quality_neck': '3', 'facial_hair': '0.0', 'notes': None, 'race_common': 'black', 'gender_common': 'man'}",,,,,,,,,,,,,,,,,,,,,,,,,,,,,,,,,,,,,,,,,,,,,,,,
19,6251bc66410f6008cca5335a,Chrome,3.0,main_task,0.0,1.0,chris,"4/9/2022, 10:03:34 AM",37035zqkhoqsrglo7lds,0.0-36.0,final_pilot_testing,40,woman,120,0.0,black,50R,U,6867.0,"['../stimuli/version1_gray_lm/id120_50R_U.png', '../stimuli/version1_gray_lm/id140_50L_C.png', '../stimuli/version1_gray_lm/id140_00C_D.png']",283634.0,0.0,41.0,17.0,encoding,woman,140,"[1, 2]",black,"['50L', '00C']","['C', 'D']",,"{'muct_id': '421', 'lighting': 'x', 'race_guess': 'b', 'gender_guess': 'w', 'quality': '3', 'quality_eyes': '3', 'quality_mouth': '3', 'quality_ears': '3', 'quality_hair': '3', 'quality_neck': '3', 'facial_hair': '0.0', 'notes': None, 'race_common': 'black', 'gender_common': 'woman'}","{'muct_id': '624', 'lighting': 'y', 'race_guess': 'b', 'gender_guess': 'w', 'quality': '3', 'quality_eyes': '3', 'quality_mouth': '3', 'quality_ears': '3', 'quality_hair': '3', 'quality_neck': '3', 'facial_hair': '0.0', 'notes': 'headband, earring', 'race_common': 'black', 'gender_common': 'woman'}",,,,,,,,,,,,,,,,,,,,,,,,,,,,,,,,,,,,,,,,,,,,,,,,
20,6251bc6a410f6008cca5335b,Chrome,2.0,main_task,1.0,2.0,chris,"4/9/2022, 10:03:38 AM",37035zqkhoqsrglo7lds,0.0-38.0,final_pilot_testing,39,woman,123,1.0,white,50R,D,3804.0,"['../stimuli/version1_gray_lm/id051_00C_C.png', '../stimuli/version1_gray_lm/id123_50R_D.png', '../stimuli/version1_gray_lm/id051_50L_U.png']",287905.0,0.0,43.0,18.0,encoding,woman,051,"[0, 2]",white,"['00C', '50L']","['C', 'U']",,"{'muct_id': '76', 'lighting': 'q', 'race_guess': 'w', 'gender_guess': 'w', 'quality': '2', 'quality_eyes': '2', 'quality_mouth': '3', 'quality_ears': '2', 'quality_hair': '2', 'quality_neck': '3', 'facial_hair': '0.0', 'notes': 'hair', 'race_common': 'white', 'gender_common': 'woman'}","{'muct_id': '74', 'lighting': 'q', 'race_guess': 'w', 'gender_guess': 'w', 'quality': '3', 'quality_eyes': '3', 'quality_mouth': '3', 'quality_ears': '3', 'quality_hair': '3', 'quality_neck': '3', 'facial_hair': '0.0', 'notes': None, 'race_common': 'white', 'gender_common': 'woman'}",,,,,,,,,,,,,,,,,,,,,,,,,,,,,,,,,,,,,,,,,,,,,,,,
21,6251bc70410f6008cca5335c,Chrome,2.0,main_task,1.0,2.0,chris,"4/9/2022, 10:03:44 AM",37035zqkhoqsrglo7lds,0.0-40.0,final_pilot_testing,39,woman,125,1.0,white,00C,D,4800.0,"['../stimuli/version1_gray_lm/id018_50R_U.png', '../stimuli/version1_gray_lm/id125_00C_D.png', '../stimuli/version1_gray_lm/id018_25L_C.png']",293137.0,0.0,45.0,19.0,encoding,woman,018,"[0, 2]",white,"['50R', '25L']","['U', 'C']",,"{'muct_id': '433', 'lighting': 'x', 'race_guess': 'w', 'gender_guess': 'w', 'quality': '3', 'quality_eyes': '3', 'quality_mouth': '3', 'quality_ears': '3', 'quality_hair': '3', 'quality_neck': '3', 'facial_hair': '0.0', 'notes': None, 'race_common': 'white', 'gender_common': 'woman'}","{'muct_id': '21', 'lighting': 'q', 'race_guess': 'w', 'gender_guess': 'w', 'quality': '3', 'quality_eyes': '3', 'quality_mouth': '3', 'quality_ears': '3', 'quality_hair': '3', 'quality_neck': '3', 'facial_hair': '0.0', 'notes': None, 'race_common': 'white', 'gender_common': 'woman'}",,,,,,,,,,,,,,,,,,,,,,,,,,,,,,,,,,,,,,,,,,,,,,,,
22,6251bc72410f6008cca5335d,Chrome,1.0,main_task,1.0,1.0,chris,"4/9/2022, 10:03:46 AM",37035zqkhoqsrglo7lds,0.0-42.0,final_pilot_testing,37,man,121,0.0,black,25L,U,2329.0,"['../stimuli/version1_gray_lm/id121_25L_U.png', '../stimuli/version1_gray_lm/id098_25R_C.png', '../stimuli/version1_gray_lm/id098_00C_D.png']",295892.0,0.0,47.0,20.0,encoding,man,098,"[1, 2]",black,"['25R', '00C']","['C', 'D']",,"{'muct_id': '423', 'lighting': 'w', 'race_guess': 'b', 'gender_guess': 'm', 'quality': '3', 'quality_eyes': '3', 'quality_mouth': '3', 'quality_ears': '3', 'quality_hair': '3', 'quality_neck': '3', 'facial_hair': '1.0', 'notes': None, 'race_common': 'black', 'gender_common': 'man'}","{'muct_id': '274', 'lighting': 't', 'race_guess': 'b', 'gender_guess': 'm', 'quality': '3', 'quality_eyes': '3', 'quality_mouth': '3', 'quality_ears': '3', 'quality_hair': '3', 'quality_neck': '3', 'facial_hair': '4.0', 'notes': None, 'race_common': 'black', 'gender_common': 'man'}",,,,,,,,,,,,,,,,,,,,,,,,,,,,,,,,,,,,,,,,,,,,,,,,
23,6251bc75410f6008cca5335e,Chrome,1.0,main_task,1.0,1.0,chris,"4/9/2022, 10:03:49 AM",37035zqkhoqsrglo7lds,0.0-44.0,final_pilot_testing,37,man,143,0.0,white,25R,C,2156.0,"['../stimuli/version1_gray_lm/id143_25R_C.png', '../stimuli/version1_gray_lm/id052_50L_U.png', '../stimuli/version1_gray_lm/id052_00C_D.png']",298472.0,0.0,49.0,21.0,encoding,man,052,"[1, 2]",white,"['50L', '00C']","['U', 'D']",,"{'muct_id': '90', 'lighting': 'q', 'race_guess': 'u', 'gender_guess': 'm', 'quality': '2', 'quality_eyes': '3', 'quality_mouth': '3', 'quality_ears': '2', 'quality_hair': '3', 'quality_neck': '3', 'facial_hair': '4.0', 'notes': 'beard', 'race_common': 'white', 'gender_common': 'man'}","{'muct_id': '75', 'lighting': 'q', 'race_guess': 'w', 'gender_guess': 'm', 'quality': '3', 'quality_eyes': '3', 'quality_mouth': '3', 'quality_ears': '3', 'quality_hair': '3', 'quality_neck': '3', 'facial_hair': '4.0', 'notes': 'beard', 'race_common': 'white', 'gender_common': 'man'}",,,,,,,,,,,,,,,,,,,,,,,,,,,,,,,,,,,,,,,,,,,,,,,,
24,6251bc7a410f6008cca5335f,Chrome,2.0,main_task,1.0,2.0,chris,"4/9/2022, 10:03:54 AM",37035zqkhoqsrglo7lds,0.0-46.0,final_pilot_testing,39,woman,141,1.0,white,50R,U,4072.0,"['../stimuli/version1_gray_lm/id076_00C_D.png', '../stimuli/version1_gray_lm/id141_50R_U.png', '../stimuli/version1_gray_lm/id076_25L_C.png']",303060.0,0.0,51.0,22.0,encoding,woman,076,"[0, 2]",white,"['00C', '25L']","['D', 'C']",,"{'muct_id': '77', 'lighting': 's', 'race_guess': 'w', 'gender_guess': 'w', 'quality': '3', 'quality_eyes': '3', 'quality_mouth': '3', 'quality_ears': '3', 'quality_hair': '3', 'quality_neck': '3', 'facial_hair': '0.0', 'notes': None, 'race_common': 'white', 'gender_common': 'woman'}","{'muct_id': '233', 'lighting': 'u', 'race_guess': 'w', 'gender_guess': 'w', 'quality': '3', 'quality_eyes': '3', 'quality_mouth': '3', 'quality_ears': '3', 'quality_hair': '3', 'quality_neck': '3', 'facial_hair': '0.0', 'notes': 'earrings', 'race_common': 'white', 'gender_common': 'woman'}",,,,,,,,,,,,,,,,,,,,,,,,,,,,,,,,,,,,,,,,,,,,,,,,
25,6251bc7c410f6008cca53360,Chrome,3.0,main_task,1.0,3.0,chris,"4/9/2022, 10:03:56 AM",37035zqkhoqsrglo7lds,0.0-48.0,final_pilot_testing,40,man,122,2.0,black,50R,U,1992.0,"['../stimuli/version1_gray_lm/id086_00C_D.png', '../stimuli/version1_gray_lm/id086_25L_C.png', '../stimuli/version1_gray_lm/id122_50R_U.png']",305498.0,0.0,53.0,23.0,encoding,man,086,"[0, 1]",black,"['00C', '25L']","['D', 'C']",,"{'muct_id': '425', 'lighting': 'x', 'race_guess': 'b', 'gender_guess': 'm', 'quality': '3', 'quality_eyes': '3', 'quality_mouth': '3', 'quality_ears': '3', 'quality_hair': '3', 'quality_neck': '3', 'facial_hair': '2.0', 'notes': None, 'race_common': 'black', 'gender_common': 'man'}","{'muct_id': '250', 'lighting': 't', 'race_guess': 'b', 'gender_guess': 'm', 'quality': '3', 'quality_eyes': '3', 'quality_mouth': '3', 'quality_ears': '3', 'quality_hair': '3', 'quality_neck': '3', 'facial_hair': '1.0', 'notes': None, 'race_common': 'black', 'gender_common': 'man'}",,,,,,,,,,,,,,,,,,,,,,,,,,,,,,,,,,,,,,,,,,,,,,,,
26,6251bc81410f6008cca53361,Chrome,2.0,main_task,1.0,2.0,chris,"4/9/2022, 10:04:01 AM",37035zqkhoqsrglo7lds,0.0-50.0,final_pilot_testing,39,man,124,1.0,black,00C,D,4248.0,"['../stimuli/version1_gray_lm/id055_25R_U.png', '../stimuli/version1_gray_lm/id124_00C_D.png', '../stimuli/version1_gray_lm/id055_50L_C.png']",310171.0,0.0,55.0,24.0,encoding,man,055,"[0, 2]",black,"['25R', '50L']","['U', 'C']",,"{'muct_id': '431', 'lighting': 'x', 'race_guess': 'b', 'gender_guess': 'u', 'quality': '3', 'quality_eyes': '3', 'quality_mouth': '3', 'quality_ears': '3', 'quality_hair': '3', 'quality_neck': '3', 'facial_hair': '0.0', 'notes': 'mouth', 'race_common': 'black', 'gender_common': 'man'}","{'muct_id': '81', 'lighting': 'q', 'race_guess': 'b', 'gender_guess': 'm', 'quality': '3', 'quality_eyes': '3', 'quality_mouth': '3', 'quality_ears': '3', 'quality_hair': '3', 'quality_neck': '3', 'facial_hair': '0.0', 'notes': None, 'race_common': 'black', 'gender_common': 'man'}",,,,,,,,,,,,,,,,,,,,,,,,,,,,,,,,,,,,,,,,,,,,,,,,
27,6251bc84410f6008cca53362,Chrome,2.0,main_task,1.0,2.0,chris,"4/9/2022, 10:04:04 AM",37035zqkhoqsrglo7lds,0.0-52.0,final_pilot_testing,39,woman,126,1.0,black,50R,C,2609.0,"['../stimuli/version1_gray_lm/id016_00C_D.png', '../stimuli/version1_gray_lm/id126_50R_C.png', '../stimuli/version1_gray_lm/id016_50L_U.png']",313188.0,0.0,57.0,25.0,encoding,woman,016,"[0, 2]",black,"['00C', '50L']","['D', 'U']",,"{'muct_id': '434', 'lighting': 'w', 'race_guess': 'b', 'gender_guess': 'w', 'quality': '3', 'quality_eyes': '3', 'quality_mouth': '3', 'quality_ears': '3', 'quality_hair': '3', 'quality_neck': '3', 'facial_hair': '0.0', 'notes': 'earrings', 'race_common': 'black', 'gender_common': 'woman'}","{'muct_id': '18', 'lighting': 'q', 'race_guess': 'b', 'gender_guess': 'w', 'quality': '3', 'quality_eyes': '3', 'quality_mouth': '3', 'quality_ears': '3', 'quality_hair': '3', 'quality_neck': '3', 'facial_hair': '0.0', 'notes': 'earrings', 'race_common': 'black', 'gender_common': 'woman'}",,,,,,,,,,,,,,,,,,,,,,,,,,,,,,,,,,,,,,,,,,,,,,,,
28,6251bc89410f6008cca53363,Chrome,3.0,main_task,1.0,3.0,chris,"4/9/2022, 10:04:09 AM",37035zqkhoqsrglo7lds,0.0-54.0,final_pilot_testing,40,woman,127,2.0,black,50R,D,4524.0,"['../stimuli/version1_gray_lm/id022_00C_C.png', '../stimuli/version1_gray_lm/id022_50L_U.png', '../stimuli/version1_gray_lm/id127_50R_D.png']",318197.0,0.0,59.0,26.0,encoding,woman,022,"[0, 1]",black,"['00C', '50L']","['C', 'U']",,"{'muct_id': '435', 'lighting': 'x', 'race_guess': 'b', 'gender_guess': 'w', 'quality': '3', 'quality_eyes': '3', 'quality_mouth': '3', 'quality_ears': '3', 'quality_hair': '3', 'quality_neck': '3', 'facial_hair': '0.0', 'notes': 'bandana', 'race_common': 'black', 'gender_common': 'woman'}","{'muct_id': '26', 'lighting': 'q', 'race_guess': 'b', 'gender_guess': 'w', 'quality': '3', 'quality_eyes': '3', 'quality_mouth': '3', 'quality_ears': '3', 'quality_hair': '3', 'quality_neck': '3', 'facial_hair': '0.0', 'notes': 'earrings', 'race_common': 'black', 'gender_common': 'woman'}",,,,,,,,,,,,,,,,,,,,,,,,,,,,,,,,,,,,,,,,,,,,,,,,
29,6251bc8c410f6008cca53364,Chrome,3.0,main_task,1.0,3.0,chris,"4/9/2022, 10:04:11 AM",37035zqkhoqsrglo7lds,0.0-56.0,final_pilot_testing,40,man,146,2.0,white,00C,U,2295.0,"['../stimuli/version1_gray_lm/id156_25R_C.png', '../stimuli/version1_gray_lm/id156_50L_D.png', '../stimuli/version1_gray_lm/id146_00C_U.png']",321006.0,0.0,61.0,27.0,encoding,man,156,"[0, 1]",white,"['25R', '50L']","['C', 'D']",,"{'muct_id': '254', 'lighting': 'v', 'race_guess': 'w', 'gender_guess': 'm', 'quality': '2', 'quality_eyes': '2', 'quality_mouth': '3', 'quality_ears': '3', 'quality_hair': '2', 'quality_neck': '3', 'facial_hair': '0.0', 'notes': 'hair', 'race_common': 'white', 'gender_common': 'man'}","{'muct_id': '258', 'lighting': 'u', 'race_guess': 'w', 'gender_guess': 'm', 'quality': '2', 'quality_eyes': '3', 'quality_mouth': '3', 'quality_ears': '3', 'quality_hair': '2', 'quality_neck': '3', 'facial_hair': '0.0', 'notes': 'hair', 'race_common': 'white', 'gender_common': 'man'}",,,,,,,,,,,,,,,,,,,,,,,,,,,,,,,,,,,,,,,,,,,,,,,,
30,6251bc90410f6008cca53365,Chrome,2.0,main_task,1.0,2.0,chris,"4/9/2022, 10:04:16 AM",37035zqkhoqsrglo7lds,0.0-58.0,final_pilot_testing,39,man,145,1.0,white,25R,D,4214.0,"['../stimuli/version1_gray_lm/id032_00C_C.png', '../stimuli/version1_gray_lm/id145_25R_D.png', '../stimuli/version1_gray_lm/id032_50L_U.png']",325659.0,0.0,63.0,28.0,encoding,man,032,"[0, 2]",white,"['00C', '50L']","['C', 'U']",,"{'muct_id': '230', 'lighting': 'u', 'race_guess': 'w', 'gender_guess': 'm', 'quality': '3', 'quality_eyes': '3', 'quality_mouth': '3', 'quality_ears': '3', 'quality_hair': '3', 'quality_neck': '3', 'facial_hair': '0.0', 'notes': 'hair', 'race_common': 'white', 'gender_common': 'man'}","{'muct_id': '43', 'lighting': 'q', 'race_guess': 'w', 'gender_guess': 'm', 'quality': '3', 'quality_eyes': '3', 'quality_mouth': '3', 'quality_ears': '3', 'quality_hair': '3', 'quality_neck': '3', 'facial_hair': '0.0', 'notes': None, 'race_common': 'white', 'gender_common': 'man'}",,,,,,,,,,,,,,,,,,,,,,,,,,,,,,,,,,,,,,,,,,,,,,,,
31,6251bc95410f6008cca53366,Chrome,2.0,main_task,1.0,2.0,chris,"4/9/2022, 10:04:21 AM",37035zqkhoqsrglo7lds,0.0-60.0,final_pilot_testing,39,man,149,1.0,white,00C,D,4023.0,"['../stimuli/version1_gray_lm/id002_50R_U.png', '../stimuli/version1_gray_lm/id149_00C_D.png', '../stimuli/version1_gray_lm/id002_25L_C.png']",330169.0,0.0,65.0,29.0,encoding,man,002,"[0, 2]",white,"['50R', '25L']","['U', 'C']",,"{'muct_id': '416', 'lighting': 'w', 'race_guess': 'w', 'gender_guess': 'm', 'quality': '3', 'quality_eyes': '3', 'quality_mouth': '3', 'quality_ears': '3', 'quality_hair': '3', 'quality_neck': '3', 'facial_hair': '2.0', 'notes': None, 'race_common': 'white', 'gender_common': 'man'}","{'muct_id': '2', 'lighting': 'r', 'race_guess': 'w', 'gender_guess': 'm', 'quality': '3', 'quality_eyes': '3', 'quality_mouth': '3', 'quality_ears': '3', 'quality_hair': '3', 'quality_neck': '3', 'facial_hair': '2.0', 'notes': 'eyes', 'race_common': 'white', 'gender_common': 'man'}",,,,,,,,,,,,,,,,,,,,,,,,,,,,,,,,,,,,,,,,,,,,,,,,
32,6251bc9a410f6008cca53367,Chrome,2.0,main_task,0.0,3.0,chris,"4/9/2022, 10:04:26 AM",37035zqkhoqsrglo7lds,0.0-62.0,final_pilot_testing,39,man,128,2.0,black,25R,U,4851.0,"['../stimuli/version1_gray_lm/id091_50L_D.png', '../stimuli/version1_gray_lm/id091_00C_C.png', '../stimuli/version1_gray_lm/id128_25R_U.png']",335421.0,0.0,67.0,30.0,encoding,man,091,"[0, 1]",black,"['50L', '00C']","['D', 'C']",,"{'muct_id': '436', 'lighting': 'w', 'race_guess': 'b', 'gender_guess': 'm', 'quality': '3', 'quality_eyes': '3', 'quality_mouth': '3', 'quality_ears': '3', 'quality_hair': '3', 'quality_neck': '3', 'facial_hair': '3.0', 'notes': 'beard', 'race_common': 'black', 'gender_common': 'man'}","{'muct_id': '260', 'lighting': 't', 'race_guess': 'b', 'gender_guess': 'm', 'quality': '3', 'quality_eyes': '3', 'quality_mouth': '3', 'quality_ears': '3', 'quality_hair': '3', 'quality_neck': '3', 'facial_hair': '4.0', 'notes': 'beard', 'race_common': 'black', 'gender_common': 'man'}",,,,,,,,,,,,,,,,,,,,,,,,,,,,,,,,,,,,,,,,,,,,,,,,
33,6251bc9f410f6008cca53368,Chrome,2.0,main_task,1.0,2.0,chris,"4/9/2022, 10:04:31 AM",37035zqkhoqsrglo7lds,0.0-64.0,final_pilot_testing,39,man,132,1.0,black,50L,U,4711.0,"['../stimuli/version1_gray_lm/id090_00C_D.png', '../stimuli/version1_gray_lm/id132_50L_U.png', '../stimuli/version1_gray_lm/id090_50R_C.png']",340767.0,0.0,69.0,31.0,encoding,man,090,"[0, 2]",black,"['00C', '50R']","['D', 'C']",,"{'muct_id': '450', 'lighting': 'w', 'race_guess': 'b', 'gender_guess': 'm', 'quality': '3', 'quality_eyes': '3', 'quality_mouth': '3', 'quality_ears': '3', 'quality_hair': '3', 'quality_neck': '3', 'facial_hair': '4.0', 'notes': 'mouth', 'race_common': 'black', 'gender_common': 'man'}","{'muct_id': '259', 'lighting': 'v', 'race_guess': 'b', 'gender_guess': 'm', 'quality': '3', 'quality_eyes': '3', 'quality_mouth': '3', 'quality_ears': '3', 'quality_hair': '3', 'quality_neck': '3', 'facial_hair': '2.0', 'notes': None, 'race_common': 'black', 'gender_common': 'man'}",,,,,,,,,,,,,,,,,,,,,,,,,,,,,,,,,,,,,,,,,,,,,,,,
34,6251bca1410f6008cca53369,Chrome,2.0,main_task,1.0,2.0,chris,"4/9/2022, 10:04:33 AM",37035zqkhoqsrglo7lds,0.0-66.0,final_pilot_testing,39,woman,148,1.0,white,00C,D,1603.0,"['../stimuli/version1_gray_lm/id017_25L_U.png', '../stimuli/version1_gray_lm/id148_00C_D.png', '../stimuli/version1_gray_lm/id017_25R_C.png']",342853.0,0.0,71.0,32.0,encoding,woman,017,"[0, 2]",white,"['25L', '25R']","['U', 'C']",,"{'muct_id': '415', 'lighting': 'w', 'race_guess': 'w', 'gender_guess': 'w', 'quality': '3', 'quality_eyes': '3', 'quality_mouth': '3', 'quality_ears': '3', 'quality_hair': '3', 'quality_neck': '3', 'facial_hair': '0.0', 'notes': None, 'race_common': 'white', 'gender_common': 'woman'}","{'muct_id': '19', 'lighting': 'r', 'race_guess': 'w', 'gender_guess': 'w', 'quality': '3', 'quality_eyes': '3', 'quality_mouth': '3', 'quality_ears': '3', 'quality_hair': '3', 'quality_neck': '3', 'facial_hair': '0.0', 'notes': None, 'race_common': 'white', 'gender_common': 'woman'}",,,,,,,,,,,,,,,,,,,,,,,,,,,,,,,,,,,,,,,,,,,,,,,,
35,6251bca8410f6008cca5336a,Chrome,3.0,main_task,1.0,3.0,chris,"4/9/2022, 10:04:40 AM",37035zqkhoqsrglo7lds,0.0-68.0,final_pilot_testing,40,woman,136,2.0,black,25L,C,6188.0,"['../stimuli/version1_gray_lm/id069_00C_U.png', '../stimuli/version1_gray_lm/id069_50R_D.png', '../stimuli/version1_gray_lm/id136_25L_C.png']",349481.0,0.0,73.0,33.0,encoding,woman,069,"[0, 1]",black,"['00C', '50R']","['U', 'D']",,"{'muct_id': '616', 'lighting': 'y', 'race_guess': 'b', 'gender_guess': 'w', 'quality': '3', 'quality_eyes': '3', 'quality_mouth': '3', 'quality_ears': '3', 'quality_hair': '3', 'quality_neck': '3', 'facial_hair': '0.0', 'notes': 'earrings', 'race_common': 'black', 'gender_common': 'woman'}","{'muct_id': '218', 'lighting': 't', 'race_guess': 'b', 'gender_guess': 'w', 'quality': '3', 'quality_eyes': '3', 'quality_mouth': '3', 'quality_ears': '3', 'quality_hair': '3', 'quality_neck': '3', 'facial_hair': '0.0', 'notes': None, 'race_common': 'black', 'gender_common': 'woman'}",,,,,,,,,,,,,,,,,,,,,,,,,,,,,,,,,,,,,,,,,,,,,,,,
36,6251bcab410f6008cca5336b,Chrome,3.0,main_task,1.0,3.0,chris,"4/9/2022, 10:04:42 AM",37035zqkhoqsrglo7lds,0.0-70.0,final_pilot_testing,40,woman,151,2.0,white,25R,D,2005.0,"['../stimuli/version1_gray_lm/id003_00C_U.png', '../stimuli/version1_gray_lm/id003_50L_C.png', '../stimuli/version1_gray_lm/id151_25R_D.png']",351976.0,0.0,75.0,34.0,encoding,woman,003,"[0, 1]",white,"['00C', '50L']","['U', 'C']",,"{'muct_id': '444', 'lighting': 'w', 'race_guess': 'w', 'gender_guess': 'w', 'quality': '3', 'quality_eyes': '3', 'quality_mouth': '3', 'quality_ears': '3', 'quality_hair': '3', 'quality_neck': '3', 'facial_hair': '0.0', 'notes': None, 'race_common': 'white', 'gender_common': 'woman'}","{'muct_id': '3', 'lighting': 's', 'race_guess': 'i', 'gender_guess': 'w', 'quality': '2', 'quality_eyes': '3', 'quality_mouth': '3', 'quality_ears': '3', 'quality_hair': '2', 'quality_neck': '3', 'facial_hair': '0.0', 'notes': 'hair', 'race_common': 'white', 'gender_common': 'woman'}",,,,,,,,,,,,,,,,,,,,,,,,,,,,,,,,,,,,,,,,,,,,,,,,
37,6251bcae410f6008cca5336c,Chrome,3.0,main_task,1.0,3.0,chris,"4/9/2022, 10:04:46 AM",37035zqkhoqsrglo7lds,0.0-72.0,final_pilot_testing,40,woman,133,2.0,black,00C,U,3270.0,"['../stimuli/version1_gray_lm/id035_50L_D.png', '../stimuli/version1_gray_lm/id035_25R_C.png', '../stimuli/version1_gray_lm/id133_00C_U.png']",355747.0,0.0,77.0,35.0,encoding,woman,035,"[0, 1]",black,"['50L', '25R']","['D', 'C']",,"{'muct_id': '601', 'lighting': 'y', 'race_guess': 'b', 'gender_guess': 'w', 'quality': '3', 'quality_eyes': '3', 'quality_mouth': '3', 'quality_ears': '3', 'quality_hair': '3', 'quality_neck': '3', 'facial_hair': '0.0', 'notes': 'mouth', 'race_common': 'black', 'gender_common': 'woman'}","{'muct_id': '46', 'lighting': 'q', 'race_guess': 'b', 'gender_guess': 'w', 'quality': '3', 'quality_eyes': '3', 'quality_mouth': '3', 'quality_ears': '3', 'quality_hair': '3', 'quality_neck': '3', 'facial_hair': '0.0', 'notes': 'earrings', 'race_common': 'black', 'gender_common': 'woman'}",,,,,,,,,,,,,,,,,,,,,,,,,,,,,,,,,,,,,,,,,,,,,,,,
38,6251bcb2410f6008cca5336d,Chrome,1.0,main_task,1.0,1.0,chris,"4/9/2022, 10:04:49 AM",37035zqkhoqsrglo7lds,0.0-74.0,final_pilot_testing,37,woman,152,0.0,white,50R,U,2569.0,"['../stimuli/version1_gray_lm/id152_50R_U.png', '../stimuli/version1_gray_lm/id054_00C_C.png', '../stimuli/version1_gray_lm/id054_25L_D.png']",358978.0,0.0,79.0,36.0,encoding,woman,054,"[1, 2]",white,"['00C', '25L']","['C', 'D']",,"{'muct_id': '446', 'lighting': 'w', 'race_guess': 'w', 'gender_guess': 'w', 'quality': '3', 'quality_eyes': '3', 'quality_mouth': '3', 'quality_ears': '3', 'quality_hair': '3', 'quality_neck': '3', 'facial_hair': '0.0', 'notes': None, 'race_common': 'white', 'gender_common': 'woman'}","{'muct_id': '80', 'lighting': 's', 'race_guess': 'b', 'gender_guess': 'w', 'quality': '3', 'quality_eyes': '3', 'quality_mouth': '3', 'quality_ears': '3', 'quality_hair': '3', 'quality_neck': '3', 'facial_hair': '0.0', 'notes': 'earrings', 'race_common': 'white', 'gender_common': 'woman'}",,,,,,,,,,,,,,,,,,,,,,,,,,,,,,,,,,,,,,,,,,,,,,,,
39,6251bcb6410f6008cca5336e,Chrome,3.0,main_task,1.0,3.0,chris,"4/9/2022, 10:04:54 AM",37035zqkhoqsrglo7lds,0.0-76.0,final_pilot_testing,40,woman,153,2.0,white,25L,D,4327.0,"['../stimuli/version1_gray_lm/id031_50R_U.png', '../stimuli/version1_gray_lm/id031_00C_C.png', '../stimuli/version1_gray_lm/id153_25L_D.png']",363692.0,0.0,81.0,37.0,encoding,woman,031,"[0, 1]",white,"['50R', '00C']","['U', 'C']",,"{'muct_id': '437', 'lighting': 'x', 'race_guess': 'w', 'gender_guess': 'w', 'quality': '3', 'quality_eyes': '3', 'quality_mouth': '3', 'quality_ears': '3', 'quality_hair': '3', 'quality_neck': '3', 'facial_hair': '0.0', 'notes': 'hair', 'race_common': 'white', 'gender_common': 'woman'}","{'muct_id': '42', 'lighting': 'q', 'race_guess': 'u', 'gender_guess': 'w', 'quality': '2', 'quality_eyes': '3', 'quality_mouth': '3', 'quality_ears': '2', 'quality_hair': '3', 'quality_neck': '3', 'facial_hair': '0.0', 'notes': 'mouth', 'race_common': 'white', 'gender_common': 'woman'}",,,,,,,,,,,,,,,,,,,,,,,,,,,,,,,,,,,,,,,,,,,,,,,,
40,6251bcba410f6008cca5336f,Chrome,2.0,main_task,1.0,2.0,chris,"4/9/2022, 10:04:58 AM",37035zqkhoqsrglo7lds,0.0-78.0,final_pilot_testing,39,woman,155,1.0,white,50L,U,3541.0,"['../stimuli/version1_gray_lm/id088_25R_C.png', '../stimuli/version1_gray_lm/id155_50L_U.png', '../stimuli/version1_gray_lm/id088_00C_D.png']",367808.0,0.0,83.0,38.0,encoding,woman,088,"[0, 2]",white,"['25R', '00C']","['C', 'D']",,"{'muct_id': '615', 'lighting': 'z', 'race_guess': 'w', 'gender_guess': 'w', 'quality': '3', 'quality_eyes': '3', 'quality_mouth': '3', 'quality_ears': '3', 'quality_hair': '3', 'quality_neck': '3', 'facial_hair': '0.0', 'notes': 'earrings', 'race_common': 'white', 'gender_common': 'woman'}","{'muct_id': '252', 'lighting': 't', 'race_guess': 'w', 'gender_guess': 'w', 'quality': '3', 'quality_eyes': '3', 'quality_mouth': '3', 'quality_ears': '3', 'quality_hair': '3', 'quality_neck': '3', 'facial_hair': '0.0', 'notes': 'hair', 'race_common': 'white', 'gender_common': 'woman'}",,,,,,,,,,,,,,,,,,,,,,,,,,,,,,,,,,,,,,,,,,,,,,,,
41,6251bcc2410f6008cca53370,Chrome,3.0,main_task,1.0,3.0,chris,"4/9/2022, 10:05:06 AM",37035zqkhoqsrglo7lds,0.0-80.0,final_pilot_testing,40,man,137,2.0,black,50L,D,6757.0,"['../stimuli/version1_gray_lm/id036_50R_C.png', '../stimuli/version1_gray_lm/id036_00C_U.png', '../stimuli/version1_gray_lm/id137_50L_D.png']",375032.0,0.0,85.0,39.0,encoding,man,036,"[0, 1]",black,"['50R', '00C']","['C', 'U']",,"{'muct_id': '617', 'lighting': 'y', 'race_guess': 'b', 'gender_guess': 'w', 'quality': '3', 'quality_eyes': '3', 'quality_mouth': '3', 'quality_ears': '3', 'quality_hair': '3', 'quality_neck': '3', 'facial_hair': '0.0', 'notes': 'mouth', 'race_common': 'black', 'gender_common': 'man'}","{'muct_id': '47', 'lighting': 'q', 'race_guess': 'b', 'gender_guess': 'u', 'quality': '3', 'quality_eyes': '3', 'quality_mouth': '3', 'quality_ears': '3', 'quality_hair': '3', 'quality_neck': '3', 'facial_hair': '0.0', 'notes': None, 'race_common': 'black', 'gender_common': 'man'}",,,,,,,,,,,,,,,,,,,,,,,,,,,,,,,,,,,,,,,,,,,,,,,,
42,6251bcc7410f6008cca53371,Chrome,3.0,main_task,1.0,3.0,chris,"4/9/2022, 10:05:11 AM",37035zqkhoqsrglo7lds,0.0-82.0,final_pilot_testing,40,man,139,2.0,black,00C,C,5257.0,"['../stimuli/version1_gray_lm/id028_50L_D.png', '../stimuli/version1_gray_lm/id028_25R_U.png', '../stimuli/version1_gray_lm/id139_00C_C.png']",380783.0,0.0,87.0,40.0,encoding,man,028,"[0, 1]",black,"['50L', '25R']","['D', 'U']",,"{'muct_id': '623', 'lighting': 'y', 'race_guess': 'b', 'gender_guess': 'm', 'quality': '3', 'quality_eyes': '3', 'quality_mouth': '3', 'quality_ears': '3', 'quality_hair': '3', 'quality_neck': '3', 'facial_hair': '1.0', 'notes': 'mouth', 'race_common': 'black', 'gender_common': 'man'}","{'muct_id': '38', 'lighting': 'q', 'race_guess': 'b', 'gender_guess': 'm', 'quality': '3', 'quality_eyes': '3', 'quality_mouth': '3', 'quality_ears': '3', 'quality_hair': '3', 'quality_neck': '3', 'facial_hair': '2.0', 'notes': None, 'race_common': 'black', 'gender_common': 'man'}",,,,,,,,,,,,,,,,,,,,,,,,,,,,,,,,,,,,,,,,,,,,,,,,
43,6251bcd1410f6008cca53372,Chrome,,main_task,,,chris,"4/9/2022, 10:05:21 AM",,0.0-84.0,final_pilot_testing,,,,,,,,9561.299999952316,"<p style='font-size: 150%'><b>You have finished Part 1!</b></p><p>Nice job! On this section, you averaged <b>90% accuracy</b>.</p><p>You're on track to earn a good bonus. Keep up the good work!</p><p>Click 'Next' to continue to Part 2.</p>",390763.0,,89.0,,bonus_update,,,,,,,,,,0,encoding,4.296,,,,,,,,,,,,,,,,,,,,,,,,,,,,,,,,,,,,,,,,,,,,,
44,6251bcf5410f6008cca53373,Chrome,2.0,main_task,1.0,2.0,chris,"4/9/2022, 10:05:57 AM",37035zqkhoqsrglo7lds,0.0-86.0-0.0,final_pilot_testing,39,,,74.0,,,,1342.0,"['../stimuli/objectome/539.jpeg', '../stimuli/objectome/74.jpeg', '../stimuli/objectome/532.jpeg']",426537.0,0.0,91.0,1.0,filler,,,,,,,,,,,,,animals,GORILLA,animals,GORILLA,within,"{'1': None, '2': None, '3': None}",animals,"[539, 532]",hedgehog,V0,,,,,,,,,,,,,,,,,,,,,,,,,,,,,,,,,,,
45,6251bcf7410f6008cca53374,Chrome,2.0,main_task,1.0,2.0,chris,"4/9/2022, 10:05:59 AM",37035zqkhoqsrglo7lds,0.0-87.0-0.0,final_pilot_testing,39,,,964.0,,,,1256.0,"['../stimuli/objectome/941.jpeg', '../stimuli/objectome/964.jpeg', '../stimuli/objectome/944.jpeg']",428345.0,0.0,93.0,2.0,filler,,,,,,,,,,,,,animals,LIONESS,animals,LIONESS,within,"{'1': None, '2': None, '3': None}",animals,"[941, 944]",GORILLA,V3,,,,,,,,,,,,,,,,,,,,,,,,,,,,,,,,,,,
46,6251bcf9410f6008cca53375,Chrome,2.0,main_task,1.0,2.0,chris,"4/9/2022, 10:06:01 AM",37035zqkhoqsrglo7lds,0.0-88.0-0.0,final_pilot_testing,39,,,2139.0,,,,1616.0,"['../stimuli/objectome/1232.jpeg', '../stimuli/objectome/2139.jpeg', '../stimuli/objectome/1209.jpeg']",430431.0,0.0,95.0,3.0,filler,,,,,,,,,,,,,animals,blCow,animals,blCow,within,"{'1': None, '2': None, '3': None}",animals,"[1232, 1209]",TURTLE_L,V3,,,,,,,,,,,,,,,,,,,,,,,,,,,,,,,,,,,
47,6251bd03410f6008cca53376,Chrome,1.0,main_task,1.0,1.0,chris,"4/9/2022, 10:06:11 AM",37035zqkhoqsrglo7lds,0.0-90.0,final_pilot_testing,37,,,951.0,,,,2168.0,"['../stimuli/objectome/951.jpeg', '../stimuli/objectome/2110.jpeg', '../stimuli/objectome/2100.jpeg']",440856.0,0.0,98.0,4.0,filler,,,,,,,,,,,,,animals,GORILLA,animals,GORILLA,within,"{'1': None, '2': None, '3': None}",animals,"[2110, 2100]",bear,V3,,,,,,,,,,,,,,,,,,,,,,,,,,,,,,,,,,,
48,6251bd06410f6008cca53377,Chrome,1.0,main_task,1.0,1.0,chris,"4/9/2022, 10:06:14 AM",37035zqkhoqsrglo7lds,0.0-92.0,final_pilot_testing,37,,,2278.0,,,,2084.0,"['../stimuli/objectome/2278.jpeg', '../stimuli/objectome/2103.jpeg', '../stimuli/objectome/2107.jpeg']",443419.0,0.0,100.0,5.0,filler,,,,,,,,,,,,,animals,breed_pug,animals,breed_pug,within,"{'1': None, '2': None, '3': None}",animals,"[2103, 2107]",bear,V3,,,,,,,,,,,,,,,,,,,,,,,,,,,,,,,,,,,
49,6251bd07410f6008cca53378,Chrome,2.0,main_task,1.0,2.0,chris,"4/9/2022, 10:06:15 AM",37035zqkhoqsrglo7lds,0.0-94.0,final_pilot_testing,39,,,994.0,,,,1120.0,"['../stimuli/objectome/2788.jpeg', '../stimuli/objectome/994.jpeg', '../stimuli/objectome/2792.jpeg']",444936.0,0.0,102.0,6.0,filler,,,,,,,,,,,,,animals,LIONESS,animals,LIONESS,within,"{'1': None, '2': None, '3': None}",animals,"[2788, 2792]",hedgehog,V3,,,,,,,,,,,,,,,,,,,,,,,,,,,,,,,,,,,
50,6251bd09410f6008cca53379,Chrome,2.0,main_task,1.0,2.0,chris,"4/9/2022, 10:06:17 AM",37035zqkhoqsrglo7lds,0.0-96.0,final_pilot_testing,39,,,2140.0,,,,1359.0,"['../stimuli/objectome/2258.jpeg', '../stimuli/objectome/2140.jpeg', '../stimuli/objectome/2249.jpeg']",446714.0,0.0,104.0,7.0,filler,,,,,,,,,,,,,animals,blCow,animals,blCow,within,"{'1': None, '2': None, '3': None}",animals,"[2258, 2249]",breed_pug,V3,,,,,,,,,,,,,,,,,,,,,,,,,,,,,,,,,,,
51,6251bd0b410f6008cca5337a,Chrome,2.0,main_task,1.0,2.0,chris,"4/9/2022, 10:06:19 AM",37035zqkhoqsrglo7lds,0.0-98.0,final_pilot_testing,39,,,1575.0,,,,1493.0,"['../stimuli/objectome/1381.jpeg', '../stimuli/objectome/1575.jpeg', '../stimuli/objectome/1387.jpeg']",448588.0,0.0,106.0,8.0,filler,,,,,,,,,,,,,chairs,_033,chairs,_033,within,"{'1': None, '2': None, '3': None}",chairs,"[1381, 1387]",_010,V3,,,,,,,,,,,,,,,,,,,,,,,,,,,,,,,,,,,
52,6251bd0d410f6008cca5337b,Chrome,1.0,main_task,1.0,1.0,chris,"4/9/2022, 10:06:21 AM",37035zqkhoqsrglo7lds,0.0-100.0,final_pilot_testing,37,,,1566.0,,,,1808.0,"['../stimuli/objectome/1566.jpeg', '../stimuli/objectome/1289.jpeg', '../stimuli/objectome/1284.jpeg']",450833.0,0.0,108.0,9.0,filler,,,,,,,,,,,,,chairs,_033,chairs,_033,within,"{'1': None, '2': None, '3': None}",chairs,"[1289, 1284]",_004,V3,,,,,,,,,,,,,,,,,,,,,,,,,,,,,,,,,,,
53,6251bd10410f6008cca5337c,Chrome,2.0,main_task,1.0,2.0,chris,"4/9/2022, 10:06:24 AM",37035zqkhoqsrglo7lds,0.0-102.0,final_pilot_testing,39,,,1439.0,,,,2195.0,"['../stimuli/objectome/1475.jpeg', '../stimuli/objectome/1439.jpeg', '../stimuli/objectome/1458.jpeg']",453480.0,0.0,110.0,10.0,filler,,,,,,,,,,,,,chairs,_011,chairs,_011,within,"{'1': None, '2': None, '3': None}",chairs,"[1475, 1458]",_014,V3,,,,,,,,,,,,,,,,,,,,,,,,,,,,,,,,,,,
54,6251bd12410f6008cca5337d,Chrome,2.0,main_task,1.0,2.0,chris,"4/9/2022, 10:06:26 AM",37035zqkhoqsrglo7lds,0.0-104.0,final_pilot_testing,39,,,177.0,,,,1714.0,"['../stimuli/objectome/151.jpeg', '../stimuli/objectome/177.jpeg', '../stimuli/objectome/159.jpeg']",455656.0,0.0,112.0,11.0,filler,,,,,,,,,,,,,chairs,_008,chairs,_008,within,"{'1': None, '2': None, '3': None}",chairs,"[151, 159]",_001,V0,,,,,,,,,,,,,,,,,,,,,,,,,,,,,,,,,,,
55,6251bd14410f6008cca5337e,Chrome,3.0,main_task,1.0,3.0,chris,"4/9/2022, 10:06:28 AM",37035zqkhoqsrglo7lds,0.0-106.0,final_pilot_testing,40,,,1380.0,,,,1697.0,"['../stimuli/objectome/1566.jpeg', '../stimuli/objectome/1576.jpeg', '../stimuli/objectome/1380.jpeg']",457802.0,0.0,114.0,12.0,filler,,,,,,,,,,,,,chairs,_010,chairs,_010,within,"{'1': None, '2': None, '3': None}",chairs,"[1566, 1576]",_033,V3,,,,,,,,,,,,,,,,,,,,,,,,,,,,,,,,,,,
56,6251bd17410f6008cca5337f,Chrome,2.0,main_task,1.0,2.0,chris,"4/9/2022, 10:06:31 AM",37035zqkhoqsrglo7lds,0.0-108.0,final_pilot_testing,39,,,1316.0,,,,1819.0,"['../stimuli/objectome/1246.jpeg', '../stimuli/objectome/1316.jpeg', '../stimuli/objectome/1261.jpeg']",460210.0,0.0,116.0,13.0,filler,,,,,,,,,,,,,chairs,_004,chairs,_004,within,"{'1': None, '2': None, '3': None}",chairs,"[1246, 1261]",_001,V3,,,,,,,,,,,,,,,,,,,,,,,,,,,,,,,,,,,
57,6251bd19410f6008cca53380,Chrome,2.0,main_task,1.0,2.0,chris,"4/9/2022, 10:06:33 AM",37035zqkhoqsrglo7lds,0.0-110.0,final_pilot_testing,39,,,1575.0,,,,1497.0,"['../stimuli/objectome/1381.jpeg', '../stimuli/objectome/1575.jpeg', '../stimuli/objectome/1387.jpeg']",462183.0,0.0,118.0,14.0,filler,,,,,,,,,,,,,chairs,_033,chairs,_033,within,"{'1': None, '2': None, '3': None}",chairs,"[1381, 1387]",_010,V3,,,,,,,,,,,,,,,,,,,,,,,,,,,,,,,,,,,
58,6251bd1b410f6008cca53381,Chrome,3.0,main_task,1.0,3.0,chris,"4/9/2022, 10:06:35 AM",37035zqkhoqsrglo7lds,0.0-112.0,final_pilot_testing,40,,,3027.0,,,,1549.0,"['../stimuli/objectome/1878.jpeg', '../stimuli/objectome/1854.jpeg', '../stimuli/objectome/3027.jpeg']",464229.0,0.0,120.0,15.0,filler,,,,,,,,,,,,,planes,sopwith,planes,sopwith,within,"{'1': None, '2': None, '3': None}",planes,"[1878, 1854]",_19_flyingBoat,V3,,,,,,,,,,,,,,,,,,,,,,,,,,,,,,,,,,,
59,6251bd21410f6008cca53382,Chrome,2.0,main_task,1.0,2.0,chris,"4/9/2022, 10:06:41 AM",37035zqkhoqsrglo7lds,0.0-114.0,final_pilot_testing,39,,,2876.0,,,,5853.0,"['../stimuli/objectome/2412.jpeg', '../stimuli/objectome/2876.jpeg', '../stimuli/objectome/2411.jpeg']",470736.0,0.0,122.0,16.0,filler,,,,,,,,,,,,,planes,mig29,planes,mig29,within,"{'1': None, '2': None, '3': None}",planes,"[2412, 2411]",f16,V3,,,,,,,,,,,,,,,,,,,,,,,,,,,,,,,,,,,
60,6251bd24410f6008cca53383,Chrome,2.0,main_task,1.0,2.0,chris,"4/9/2022, 10:06:44 AM",37035zqkhoqsrglo7lds,0.0-116.0,final_pilot_testing,39,,,2876.0,,,,2206.0,"['../stimuli/objectome/2820.jpeg', '../stimuli/objectome/2876.jpeg', '../stimuli/objectome/2813.jpeg']",473462.0,0.0,124.0,17.0,filler,,,,,,,,,,,,,planes,mig29,planes,mig29,within,"{'1': None, '2': None, '3': None}",planes,"[2820, 2813]",junkers88,V3,,,,,,,,,,,,,,,,,,,,,,,,,,,,,,,,,,,
61,6251bd2b410f6008cca53384,Chrome,3.0,main_task,1.0,3.0,chris,"4/9/2022, 10:06:51 AM",37035zqkhoqsrglo7lds,0.0-118.0,final_pilot_testing,40,,,2871.0,,,,6118.0,"['../stimuli/objectome/1600.jpeg', '../stimuli/objectome/1616.jpeg', '../stimuli/objectome/2871.jpeg']",480256.0,0.0,126.0,18.0,filler,,,,,,,,,,,,,planes,mig29,planes,mig29,within,"{'1': None, '2': None, '3': None}",planes,"[1600, 1616]",_05_future,V3,,,,,,,,,,,,,,,,,,,,,,,,,,,,,,,,,,,
62,6251bd2f410f6008cca53385,Chrome,1.0,main_task,1.0,1.0,chris,"4/9/2022, 10:06:55 AM",37035zqkhoqsrglo7lds,0.0-120.0,final_pilot_testing,37,,,2814.0,,,,4190.0,"['../stimuli/objectome/2814.jpeg', '../stimuli/objectome/1865.jpeg', '../stimuli/objectome/1851.jpeg']",484895.0,0.0,128.0,19.0,filler,,,,,,,,,,,,,planes,junkers88,planes,junkers88,within,"{'1': None, '2': None, '3': None}",planes,"[1865, 1851]",_19_flyingBoat,V3,,,,,,,,,,,,,,,,,,,,,,,,,,,,,,,,,,,
63,6251bd34410f6008cca53386,Chrome,2.0,main_task,1.0,2.0,chris,"4/9/2022, 10:07:00 AM",37035zqkhoqsrglo7lds,0.0-122.0,final_pilot_testing,39,,,2979.0,,,,4348.0,"['../stimuli/objectome/2872.jpeg', '../stimuli/objectome/2979.jpeg', '../stimuli/objectome/2860.jpeg']",489758.0,0.0,130.0,20.0,filler,,,,,,,,,,,,,planes,rdbarren,planes,rdbarren,within,"{'1': None, '2': None, '3': None}",planes,"[2872, 2860]",mig29,V3,,,,,,,,,,,,,,,,,,,,,,,,,,,,,,,,,,,
64,6251bd3c410f6008cca53387,Chrome,,main_task,,,chris,"4/9/2022, 10:07:07 AM",,0.0-124.0,final_pilot_testing,,,,,,,,6838.100000023842,"<p style='font-size: 150%'><b>You have finished Part 2!</b></p><p>Nice job! On this section, you averaged <b>100% accuracy</b>.</p><p>You're on track to earn a good bonus. Keep up the good work!</p><p>Click 'Next' to continue to Part 3.</p>",497018.0,,132.0,,bonus_update,,,,,,,,,,0,filler,4.968,,,,,,,,,,,,,,,,,,,,,,,,,,,,,,,,,,,,,,,,,,,,,
65,6251bd8a410f6008cca53388,Chrome,,main_task,1.0,1.0,chris,"4/9/2022, 10:08:26 AM",37035zqkhoqsrglo7lds,0.0-126.0-0.0,final_pilot_testing,,,,,,,,4232.700000047684,../stimuli/version1_gray_lm/id137_50L_D.png,575612.0,0.0,134.0,1.0,retrieval_practice,,,,,,,,,,,,,,,,,,,,,,,036,oddity,man,137,"{'muct_id': '617', 'lighting': 'y', 'race_guess': 'b', 'gender_guess': 'w', 'quality': '3', 'quality_eyes': '3', 'quality_mouth': '3', 'quality_ears': '3', 'quality_hair': '3', 'quality_neck': '3', 'facial_hair': '0.0', 'notes': 'mouth', 'race_common': 'black', 'gender_common': 'man'}",38.0,50L,D,black,100.0,old,50L,D,00C,0.0,,,,,,,,,,,,,,,,,,,,
66,6251bd8f410f6008cca53389,Chrome,,main_task,1.0,0.0,chris,"4/9/2022, 10:08:31 AM",37035zqkhoqsrglo7lds,0.0-127.0-0.0,final_pilot_testing,,,,,,,,3512.5,../stimuli/version1_gray_lm/id049_25L_D.png,580859.0,0.0,136.0,2.0,retrieval_practice,,,,,,,,,,,,,,,,,,,,,,,,,,049,"{'muct_id': '66', 'lighting': 'r', 'race_guess': 'w', 'gender_guess': 'm', 'quality': '3', 'quality_eyes': '3', 'quality_mouth': '3', 'quality_ears': '3', 'quality_hair': '3', 'quality_neck': '3', 'facial_hair': '0.0', 'notes': None, 'race_common': 'white', 'gender_common': 'man'}",,,,,36.0,new,25L,D,,,,,,,,,,,,,,,,,,,,,,
67,6251bd93410f6008cca5338a,Chrome,,main_task,0.0,0.0,chris,"4/9/2022, 10:08:35 AM",37035zqkhoqsrglo7lds,0.0-128.0-0.0,final_pilot_testing,,,,,,,,2490.5,../stimuli/version1_gray_lm/id020_50L_C.png,584439.0,0.0,138.0,3.0,retrieval_practice,,,,,,,,,,,,,,,,,,,,,,,,,,020,"{'muct_id': '24', 'lighting': 'q', 'race_guess': 'b', 'gender_guess': 'w', 'quality': '3', 'quality_eyes': '3', 'quality_mouth': '3', 'quality_ears': '3', 'quality_hair': '3', 'quality_neck': '3', 'facial_hair': '0.0', 'notes': None, 'race_common': 'black', 'gender_common': 'woman'}",,,,,100.0,new,50L,C,,,,,,,,,,,,,,,,,,,,,,
68,6251bd97410f6008cca5338b,Chrome,,main_task,1.0,0.0,chris,"4/9/2022, 10:08:39 AM",37035zqkhoqsrglo7lds,0.0-128.1-0.1,final_pilot_testing,,,,,,,,2600.2000000476837,../stimuli/version1_gray_lm/id020_50L_C.png,588274.0,0.0,140.0,4.0,retrieval_practice,,,,,,,,,,,,,,,,,,,,,,,,,,020,"{'muct_id': '24', 'lighting': 'q', 'race_guess': 'b', 'gender_guess': 'w', 'quality': '3', 'quality_eyes': '3', 'quality_mouth': '3', 'quality_ears': '3', 'quality_hair': '3', 'quality_neck': '3', 'facial_hair': '0.0', 'notes': None, 'race_common': 'black', 'gender_common': 'woman'}",,,,,33.0,new,50L,C,,,,,,,,,,,,,,,,,,,,,,
69,6251bdb9410f6008cca5338c,Chrome,,main_task,1.0,0.0,chris,"4/9/2022, 10:09:13 AM",37035zqkhoqsrglo7lds,0.0-130.0,final_pilot_testing,,,,,,,,6430.300000071526,../stimuli/version1_gray_lm/id047_25R_C.png,622137.0,0.0,143.0,1.0,retrieval,,,,,,,,,,,,,,,,,,,,,,,,,,047,"{'muct_id': '64', 'lighting': 'q', 'race_guess': 'w', 'gender_guess': 'm', 'quality': '3', 'quality_eyes': '3', 'quality_mouth': '3', 'quality_ears': '3', 'quality_hair': '3', 'quality_neck': '3', 'facial_hair': '0.0', 'notes': None, 'race_common': 'white', 'gender_common': 'man'}",,,,,33.0,new,25R,C,,,,,,,,,,,,,,,,,,,,,,
70,6251bdbd410f6008cca5338d,Chrome,,main_task,0.0,1.0,chris,"4/9/2022, 10:09:17 AM",37035zqkhoqsrglo7lds,0.0-132.0,final_pilot_testing,,,,,,,,3248.7999999523163,../stimuli/version1_gray_lm/id151_25R_D.png,626325.0,0.0,145.0,2.0,retrieval,,,,,,,,,,,,,,,,,,,,,,,003,oddity,woman,151,"{'muct_id': '444', 'lighting': 'w', 'race_guess': 'w', 'gender_guess': 'w', 'quality': '3', 'quality_eyes': '3', 'quality_mouth': '3', 'quality_ears': '3', 'quality_hair': '3', 'quality_neck': '3', 'facial_hair': '0.0', 'notes': None, 'race_common': 'white', 'gender_common': 'woman'}",33,25R,D,white,11.0,old,25R,D,00C,0,,,,,,,,,,,,,,,,,,,,
71,6251bdc2410f6008cca5338e,Chrome,,main_task,0.0,0.0,chris,"4/9/2022, 10:09:22 AM",37035zqkhoqsrglo7lds,0.0-134.0,final_pilot_testing,,,,,,,,3821.5999999046326,../stimuli/version1_gray_lm/id019_50L_U.png,631081.0,0.0,147.0,3.0,retrieval,,,,,,,,,,,,,,,,,,,,,,,,,,019,"{'muct_id': '23', 'lighting': 'q', 'race_guess': 'b', 'gender_guess': 'u', 'quality': '3', 'quality_eyes': '3', 'quality_mouth': '3', 'quality_ears': '3', 'quality_hair': '3', 'quality_neck': '3', 'facial_hair': '0.0', 'notes': None, 'race_common': 'black', 'gender_common': 'woman'}",,,,,68.0,new,50L,U,,,,,,,,,,,,,,,,,,,,,,
72,6251bdc6410f6008cca5338f,Chrome,,main_task,1.0,0.0,chris,"4/9/2022, 10:09:26 AM",37035zqkhoqsrglo7lds,0.0-136.0,final_pilot_testing,,,,,,,,3057.899999976158,../stimuli/version1_gray_lm/id044_00C_U.png,635033.0,0.0,149.0,4.0,retrieval,,,,,,,,,,,,,,,,,,,,,,,,,,044,"{'muct_id': '60', 'lighting': 's', 'race_guess': 'u', 'gender_guess': 'm', 'quality': '3', 'quality_eyes': '3', 'quality_mouth': '3', 'quality_ears': '3', 'quality_hair': '3', 'quality_neck': '3', 'facial_hair': '2.0', 'notes': None, 'race_common': 'white', 'gender_common': 'man'}",,,,,13.0,new,00C,U,,,,,,,,,,,,,,,,,,,,,,
73,6251bdca410f6008cca53390,Chrome,,main_task,0.0,1.0,chris,"4/9/2022, 10:09:30 AM",37035zqkhoqsrglo7lds,0.0-138.0,final_pilot_testing,,,,,,,,3630.2000000476837,../stimuli/version1_gray_lm/id111_25R_U.png,639265.0,0.0,151.0,5.0,retrieval,,,,,,,,,,,,,,,,,,,,,,,077,oddity,woman,111,"{'muct_id': '405', 'lighting': 'w', 'race_guess': 'b', 'gender_guess': 'w', 'quality': '3', 'quality_eyes': '3', 'quality_mouth': '3', 'quality_ears': '3', 'quality_hair': '3', 'quality_neck': '3', 'facial_hair': '0.0', 'notes': 'hair earrings', 'race_common': 'black', 'gender_common': 'woman'}",7,25R,U,black,33.0,old,25R,U,00C,0,,,,,,,,,,,,,,,,,,,,
74,6251bdce410f6008cca53391,Chrome,,main_task,1.0,0.0,chris,"4/9/2022, 10:09:34 AM",37035zqkhoqsrglo7lds,0.0-140.0,final_pilot_testing,,,,,,,,3238.1999999284744,../stimuli/version1_gray_lm/id057_50L_U.png,643192.0,0.0,153.0,6.0,retrieval,,,,,,,,,,,,,,,,,,,,,,,,,,057,"{'muct_id': '83', 'lighting': 'r', 'race_guess': 'b', 'gender_guess': 'm', 'quality': '3', 'quality_eyes': '3', 'quality_mouth': '3', 'quality_ears': '3', 'quality_hair': '3', 'quality_neck': '3', 'facial_hair': '3.0', 'notes': None, 'race_common': 'black', 'gender_common': 'man'}",,,,,31.0,new,50L,U,,,,,,,,,,,,,,,,,,,,,,
75,6251bdd5410f6008cca53392,Chrome,,main_task,0.0,1.0,chris,"4/9/2022, 10:09:41 AM",37035zqkhoqsrglo7lds,0.0-142.0,final_pilot_testing,,,,,,,,6885.299999952316,../stimuli/version1_gray_lm/id115_50L_U.png,650774.0,0.0,155.0,7.0,retrieval,,,,,,,,,,,,,,,,,,,,,,,080,oddity,man,115,"{'muct_id': '412', 'lighting': 'x', 'race_guess': 'w', 'gender_guess': 'm', 'quality': '3', 'quality_eyes': '3', 'quality_mouth': '3', 'quality_ears': '3', 'quality_hair': '3', 'quality_neck': '3', 'facial_hair': '0.0', 'notes': None, 'race_common': 'white', 'gender_common': 'man'}",14,00C,U,white,34.0,old,50L,U,50L,-50,,,,,,,,,,,,,,,,,,,,
76,6251bdd9410f6008cca53393,Chrome,,main_task,1.0,0.0,chris,"4/9/2022, 10:09:45 AM",37035zqkhoqsrglo7lds,0.0-144.0,final_pilot_testing,,,,,,,,2621.0,../stimuli/version1_gray_lm/id068_25R_D.png,654598.0,0.0,157.0,8.0,retrieval,,,,,,,,,,,,,,,,,,,,,,,,,,068,"{'muct_id': '213', 'lighting': 'u', 'race_guess': 'b', 'gender_guess': 'w', 'quality': '3', 'quality_eyes': '3', 'quality_mouth': '3', 'quality_ears': '3', 'quality_hair': '3', 'quality_neck': '3', 'facial_hair': '0.0', 'notes': None, 'race_common': 'black', 'gender_common': 'woman'}",,,,,30.0,new,25R,D,,,,,,,,,,,,,,,,,,,,,,
77,6251bddd410f6008cca53394,Chrome,,main_task,0.0,1.0,chris,"4/9/2022, 10:09:49 AM",37035zqkhoqsrglo7lds,0.0-146.0,final_pilot_testing,,,,,,,,3055.2000000476837,../stimuli/version1_gray_lm/id120_00C_U.png,658376.0,0.0,159.0,9.0,retrieval,,,,,,,,,,,,,,,,,,,,,,,140,oddity,woman,120,"{'muct_id': '421', 'lighting': 'x', 'race_guess': 'b', 'gender_guess': 'w', 'quality': '3', 'quality_eyes': '3', 'quality_mouth': '3', 'quality_ears': '3', 'quality_hair': '3', 'quality_neck': '3', 'facial_hair': '0.0', 'notes': None, 'race_common': 'black', 'gender_common': 'woman'}",16,50R,U,black,33.0,old,00C,U,50L,-50,,,,,,,,,,,,,,,,,,,,
78,6251bde0410f6008cca53395,Chrome,,main_task,1.0,0.0,chris,"4/9/2022, 10:09:52 AM",37035zqkhoqsrglo7lds,0.0-148.0,final_pilot_testing,,,,,,,,2401.2000000476837,../stimuli/version1_gray_lm/id093_25R_D.png,661408.0,0.0,161.0,10.0,retrieval,,,,,,,,,,,,,,,,,,,,,,,,,,093,"{'muct_id': '263', 'lighting': 'u', 'race_guess': 'w', 'gender_guess': 'm', 'quality': '3', 'quality_eyes': '3', 'quality_mouth': '3', 'quality_ears': '3', 'quality_hair': '3', 'quality_neck': '3', 'facial_hair': '2.0', 'notes': None, 'race_common': 'white', 'gender_common': 'man'}",,,,,30.0,new,25R,D,,,,,,,,,,,,,,,,,,,,,,
79,6251bde3410f6008cca53396,Chrome,,main_task,1.0,0.0,chris,"4/9/2022, 10:09:55 AM",37035zqkhoqsrglo7lds,0.0-150.0,final_pilot_testing,,,,,,,,2917.7999999523163,../stimuli/version1_gray_lm/id085_25L_D.png,664915.0,0.0,163.0,11.0,retrieval,,,,,,,,,,,,,,,,,,,,,,,,,,085,"{'muct_id': '249', 'lighting': 't', 'race_guess': 'b', 'gender_guess': 'w', 'quality': '2', 'quality_eyes': '2', 'quality_mouth': '3', 'quality_ears': '3', 'quality_hair': '3', 'quality_neck': '3', 'facial_hair': '0.0', 'notes': None, 'race_common': 'black', 'gender_common': 'man'}",,,,,28.0,new,25L,D,,,,,,,,,,,,,,,,,,,,,,
80,6251bdeb410f6008cca53397,Chrome,,main_task,1.0,0.0,chris,"4/9/2022, 10:10:03 AM",37035zqkhoqsrglo7lds,0.0-152.0,final_pilot_testing,,,,,,,,7149.199999928474,../stimuli/version1_gray_lm/id142_25R_C.png,672760.0,0.0,165.0,12.0,retrieval,,,,,,,,,,,,,,,,,,,,,,,,,,142,"{'muct_id': '87', 'lighting': 'r', 'race_guess': 'b', 'gender_guess': 'w', 'quality': '3', 'quality_eyes': '3', 'quality_mouth': '3', 'quality_ears': '3', 'quality_hair': '3', 'quality_neck': '3', 'facial_hair': '0.0', 'notes': 'earrings hair', 'race_common': 'black', 'gender_common': 'woman'}",,,,,26.0,new,25R,C,,,,,,,,,,,,,,,,,,,,,,
81,6251bdf1410f6008cca53398,Chrome,,main_task,0.0,0.0,chris,"4/9/2022, 10:10:09 AM",37035zqkhoqsrglo7lds,0.0-154.0,final_pilot_testing,,,,,,,,4845.100000023842,../stimuli/version1_gray_lm/id004_50R_U.png,678220.0,0.0,167.0,13.0,retrieval,,,,,,,,,,,,,,,,,,,,,,,,,,004,"{'muct_id': '4', 'lighting': 'q', 'race_guess': 'b', 'gender_guess': 'm', 'quality': '3', 'quality_eyes': '3', 'quality_mouth': '3', 'quality_ears': '3', 'quality_hair': '3', 'quality_neck': '3', 'facial_hair': '2.0', 'notes': None, 'race_common': 'black', 'gender_common': 'man'}",,,,,61.0,new,50R,U,,,,,,,,,,,,,,,,,,,,,,
82,6251bdf4410f6008cca53399,Chrome,,main_task,1.0,0.0,chris,"4/9/2022, 10:10:12 AM",37035zqkhoqsrglo7lds,0.0-156.0,final_pilot_testing,,,,,,,,2633.7999999523163,../stimuli/version1_gray_lm/id083_25L_C.png,681428.0,0.0,169.0,14.0,retrieval,,,,,,,,,,,,,,,,,,,,,,,,,,083,"{'muct_id': '243', 'lighting': 'v', 'race_guess': 'b', 'gender_guess': 'm', 'quality': '3', 'quality_eyes': '3', 'quality_mouth': '3', 'quality_ears': '3', 'quality_hair': '3', 'quality_neck': '3', 'facial_hair': '0.0', 'notes': None, 'race_common': 'black', 'gender_common': 'man'}",,,,,34.0,new,25L,C,,,,,,,,,,,,,,,,,,,,,,
83,6251bdf8410f6008cca5339a,Chrome,,main_task,1.0,1.0,chris,"4/9/2022, 10:10:16 AM",37035zqkhoqsrglo7lds,0.0-158.0,final_pilot_testing,,,,,,,,3567.0,../stimuli/version1_gray_lm/id153_25L_D.png,685520.0,0.0,171.0,15.0,retrieval,,,,,,,,,,,,,,,,,,,,,,,031,oddity,woman,153,"{'muct_id': '437', 'lighting': 'x', 'race_guess': 'w', 'gender_guess': 'w', 'quality': '3', 'quality_eyes': '3', 'quality_mouth': '3', 'quality_ears': '3', 'quality_hair': '3', 'quality_neck': '3', 'facial_hair': '0.0', 'notes': 'hair', 'race_common': 'white', 'gender_common': 'woman'}",36,25L,D,white,69.0,old,25L,D,00C,0,,,,,,,,,,,,,,,,,,,,
84,6251bdfc410f6008cca5339b,Chrome,,main_task,1.0,0.0,chris,"4/9/2022, 10:10:20 AM",37035zqkhoqsrglo7lds,0.0-160.0,final_pilot_testing,,,,,,,,3330.0,../stimuli/version1_gray_lm/id089_00C_D.png,689476.0,0.0,173.0,16.0,retrieval,,,,,,,,,,,,,,,,,,,,,,,,,,089,"{'muct_id': '255', 'lighting': 't', 'race_guess': 'w', 'gender_guess': 'm', 'quality': '3', 'quality_eyes': '3', 'quality_mouth': '3', 'quality_ears': '3', 'quality_hair': '3', 'quality_neck': '3', 'facial_hair': '2.0', 'notes': None, 'race_common': 'white', 'gender_common': 'man'}",,,,,32.0,new,00C,D,,,,,,,,,,,,,,,,,,,,,,
85,6251be00410f6008cca5339c,Chrome,,main_task,1.0,0.0,chris,"4/9/2022, 10:10:24 AM",37035zqkhoqsrglo7lds,0.0-162.0,final_pilot_testing,,,,,,,,3239.7999999523163,../stimuli/version1_gray_lm/id094_00C_D.png,693238.0,0.0,175.0,17.0,retrieval,,,,,,,,,,,,,,,,,,,,,,,,,,094,"{'muct_id': '264', 'lighting': 't', 'race_guess': 'w', 'gender_guess': 'm', 'quality': '3', 'quality_eyes': '3', 'quality_mouth': '3', 'quality_ears': '3', 'quality_hair': '3', 'quality_neck': '3', 'facial_hair': '0.0', 'notes': None, 'race_common': 'white', 'gender_common': 'man'}",,,,,0.0,new,00C,D,,,,,,,,,,,,,,,,,,,,,,
86,6251be04410f6008cca5339d,Chrome,,main_task,1.0,1.0,chris,"4/9/2022, 10:10:28 AM",37035zqkhoqsrglo7lds,0.0-164.0,final_pilot_testing,,,,,,,,3322.2000000476837,../stimuli/version1_gray_lm/id136_25L_C.png,697152.0,0.0,177.0,18.0,retrieval,,,,,,,,,,,,,,,,,,,,,,,069,oddity,woman,136,"{'muct_id': '616', 'lighting': 'y', 'race_guess': 'b', 'gender_guess': 'w', 'quality': '3', 'quality_eyes': '3', 'quality_mouth': '3', 'quality_ears': '3', 'quality_hair': '3', 'quality_neck': '3', 'facial_hair': '0.0', 'notes': 'earrings', 'race_common': 'black', 'gender_common': 'woman'}",32,25L,C,black,95.0,old,25L,C,00C,0,,,,,,,,,,,,,,,,,,,,
87,6251be0a410f6008cca5339e,Chrome,,main_task,1.0,0.0,chris,"4/9/2022, 10:10:34 AM",37035zqkhoqsrglo7lds,0.0-166.0,final_pilot_testing,,,,,,,,5678.300000071526,../stimuli/version1_gray_lm/id059_00C_C.png,703486.0,0.0,179.0,19.0,retrieval,,,,,,,,,,,,,,,,,,,,,,,,,,059,"{'muct_id': '86', 'lighting': 'q', 'race_guess': 'b', 'gender_guess': 'w', 'quality': '3', 'quality_eyes': '3', 'quality_mouth': '3', 'quality_ears': '3', 'quality_hair': '3', 'quality_neck': '3', 'facial_hair': '0.0', 'notes': 'earrings', 'race_common': 'black', 'gender_common': 'woman'}",,,,,9.0,new,00C,C,,,,,,,,,,,,,,,,,,,,,,
88,6251be0e410f6008cca5339f,Chrome,,main_task,1.0,1.0,chris,"4/9/2022, 10:10:38 AM",37035zqkhoqsrglo7lds,0.0-168.0,final_pilot_testing,,,,,,,,3360.2999999523163,../stimuli/version1_gray_lm/id132_50L_U.png,707407.0,0.0,181.0,20.0,retrieval,,,,,,,,,,,,,,,,,,,,,,,090,oddity,man,132,"{'muct_id': '450', 'lighting': 'w', 'race_guess': 'b', 'gender_guess': 'm', 'quality': '3', 'quality_eyes': '3', 'quality_mouth': '3', 'quality_ears': '3', 'quality_hair': '3', 'quality_neck': '3', 'facial_hair': '4.0', 'notes': 'mouth', 'race_common': 'black', 'gender_common': 'man'}",30,50L,U,black,72.0,old,50L,U,00C,0,,,,,,,,,,,,,,,,,,,,
89,6251be11410f6008cca533a0,Chrome,,main_task,1.0,1.0,chris,"4/9/2022, 10:10:41 AM",37035zqkhoqsrglo7lds,0.0-170.0,final_pilot_testing,,,,,,,,2471.5,../stimuli/version1_gray_lm/id139_00C_C.png,710917.0,0.0,183.0,21.0,retrieval,,,,,,,,,,,,,,,,,,,,,,,028,oddity,man,139,"{'muct_id': '623', 'lighting': 'y', 'race_guess': 'b', 'gender_guess': 'm', 'quality': '3', 'quality_eyes': '3', 'quality_mouth': '3', 'quality_ears': '3', 'quality_hair': '3', 'quality_neck': '3', 'facial_hair': '1.0', 'notes': 'mouth', 'race_common': 'black', 'gender_common': 'man'}",39,00C,C,black,100.0,old,00C,C,00C,0,,,,,,,,,,,,,,,,,,,,
90,6251be16410f6008cca533a1,Chrome,,main_task,1.0,1.0,chris,"4/9/2022, 10:10:46 AM",37035zqkhoqsrglo7lds,0.0-172.0,final_pilot_testing,,,,,,,,3839.899999976158,../stimuli/version1_gray_lm/id152_50R_U.png,715505.0,0.0,185.0,22.0,retrieval,,,,,,,,,,,,,,,,,,,,,,,054,oddity,woman,152,"{'muct_id': '446', 'lighting': 'w', 'race_guess': 'w', 'gender_guess': 'w', 'quality': '3', 'quality_eyes': '3', 'quality_mouth': '3', 'quality_ears': '3', 'quality_hair': '3', 'quality_neck': '3', 'facial_hair': '0.0', 'notes': None, 'race_common': 'white', 'gender_common': 'woman'}",35,50R,U,white,64.0,old,50R,U,00C,0,,,,,,,,,,,,,,,,,,,,
91,6251be1c410f6008cca533a2,Chrome,,main_task,0.0,1.0,chris,"4/9/2022, 10:10:52 AM",37035zqkhoqsrglo7lds,0.0-174.0,final_pilot_testing,,,,,,,,5169.700000047684,../stimuli/version1_gray_lm/id121_25R_U.png,721351.0,0.0,187.0,23.0,retrieval,,,,,,,,,,,,,,,,,,,,,,,098,oddity,man,121,"{'muct_id': '423', 'lighting': 'w', 'race_guess': 'b', 'gender_guess': 'm', 'quality': '3', 'quality_eyes': '3', 'quality_mouth': '3', 'quality_ears': '3', 'quality_hair': '3', 'quality_neck': '3', 'facial_hair': '1.0', 'notes': None, 'race_common': 'black', 'gender_common': 'man'}",19,25L,U,black,39.0,old,25R,U,50R,50,,,,,,,,,,,,,,,,,,,,
92,6251be1f410f6008cca533a3,Chrome,,main_task,1.0,1.0,chris,"4/9/2022, 10:10:55 AM",37035zqkhoqsrglo7lds,0.0-176.0,final_pilot_testing,,,,,,,,2483.5,../stimuli/version1_gray_lm/id112_25R_D.png,724431.0,0.0,189.0,24.0,retrieval,,,,,,,,,,,,,,,,,,,,,,,064,oddity,man,112,"{'muct_id': '406', 'lighting': 'w', 'race_guess': 'b', 'gender_guess': 'm', 'quality': '3', 'quality_eyes': '3', 'quality_mouth': '3', 'quality_ears': '3', 'quality_hair': '3', 'quality_neck': '3', 'facial_hair': '1.0', 'notes': None, 'race_common': 'black', 'gender_common': 'man'}",6,25L,D,black,70.0,old,25R,D,50R,50,,,,,,,,,,,,,,,,,,,,
93,6251be23410f6008cca533a4,Chrome,,main_task,0.0,0.0,chris,"4/9/2022, 10:10:59 AM",37035zqkhoqsrglo7lds,0.0-178.0,final_pilot_testing,,,,,,,,3907.5,../stimuli/version1_gray_lm/id005_00C_D.png,728831.0,0.0,191.0,25.0,retrieval,,,,,,,,,,,,,,,,,,,,,,,,,,005,"{'muct_id': '5', 'lighting': 'q', 'race_guess': 'b', 'gender_guess': 'w', 'quality': '3', 'quality_eyes': '3', 'quality_mouth': '3', 'quality_ears': '3', 'quality_hair': '3', 'quality_neck': '3', 'facial_hair': '0.0', 'notes': 'hat', 'race_common': 'black', 'gender_common': 'woman'}",,,,,71.0,new,00C,D,,,,,,,,,,,,,,,,,,,,,,
94,6251be29410f6008cca533a5,Chrome,,main_task,1.0,0.0,chris,"4/9/2022, 10:11:05 AM",37035zqkhoqsrglo7lds,0.0-180.0,final_pilot_testing,,,,,,,,4925.300000071526,../stimuli/version1_gray_lm/id099_50R_C.png,734238.0,0.0,193.0,26.0,retrieval,,,,,,,,,,,,,,,,,,,,,,,,,,099,"{'muct_id': '278', 'lighting': 't', 'race_guess': 'w', 'gender_guess': 'm', 'quality': '3', 'quality_eyes': '3', 'quality_mouth': '3', 'quality_ears': '3', 'quality_hair': '3', 'quality_neck': '3', 'facial_hair': '0.0', 'notes': None, 'race_common': 'white', 'gender_common': 'man'}",,,,,37.0,new,50R,C,,,,,,,,,,,,,,,,,,,,,,
95,6251be2f410f6008cca533a6,Chrome,,main_task,1.0,0.0,chris,"4/9/2022, 10:11:11 AM",37035zqkhoqsrglo7lds,0.0-182.0,final_pilot_testing,,,,,,,,5090.299999952316,../stimuli/version1_gray_lm/id012_50R_C.png,740332.0,0.0,195.0,27.0,retrieval,,,,,,,,,,,,,,,,,,,,,,,,,,012,"{'muct_id': '12', 'lighting': 'q', 'race_guess': 'i', 'gender_guess': 'm', 'quality': '3', 'quality_eyes': '3', 'quality_mouth': '3', 'quality_ears': '3', 'quality_hair': '3', 'quality_neck': '3', 'facial_hair': '2.0', 'notes': None, 'race_common': 'white', 'gender_common': 'man'}",,,,,32.0,new,50R,C,,,,,,,,,,,,,,,,,,,,,,
96,6251be32410f6008cca533a7,Chrome,,main_task,1.0,0.0,chris,"4/9/2022, 10:11:14 AM",37035zqkhoqsrglo7lds,0.0-184.0,final_pilot_testing,,,,,,,,2440.600000023842,../stimuli/version1_gray_lm/id061_50R_D.png,743362.0,0.0,197.0,28.0,retrieval,,,,,,,,,,,,,,,,,,,,,,,,,,061,"{'muct_id': '89', 'lighting': 'r', 'race_guess': 'w', 'gender_guess': 'm', 'quality': '3', 'quality_eyes': '3', 'quality_mouth': '3', 'quality_ears': '3', 'quality_hair': '3', 'quality_neck': '3', 'facial_hair': '2.0', 'notes': None, 'race_common': 'white', 'gender_common': 'man'}",,,,,30.0,new,50R,D,,,,,,,,,,,,,,,,,,,,,,
97,6251be35410f6008cca533a8,Chrome,,main_task,0.0,1.0,chris,"4/9/2022, 10:11:17 AM",37035zqkhoqsrglo7lds,0.0-186.0,final_pilot_testing,,,,,,,,2295.100000023842,../stimuli/version1_gray_lm/id143_25L_C.png,746150.0,0.0,199.0,29.0,retrieval,,,,,,,,,,,,,,,,,,,,,,,052,oddity,man,143,"{'muct_id': '90', 'lighting': 'q', 'race_guess': 'u', 'gender_guess': 'm', 'quality': '2', 'quality_eyes': '3', 'quality_mouth': '3', 'quality_ears': '2', 'quality_hair': '3', 'quality_neck': '3', 'facial_hair': '4.0', 'notes': 'beard', 'race_common': 'white', 'gender_common': 'man'}",20,25R,C,white,38.0,old,25L,C,50L,-50,,,,,,,,,,,,,,,,,,,,
98,6251be3a410f6008cca533a9,Chrome,,main_task,1.0,1.0,chris,"4/9/2022, 10:11:22 AM",37035zqkhoqsrglo7lds,0.0-188.0,final_pilot_testing,,,,,,,,4466.799999952316,../stimuli/version1_gray_lm/id141_50R_U.png,751160.0,0.0,201.0,30.0,retrieval,,,,,,,,,,,,,,,,,,,,,,,076,oddity,woman,141,"{'muct_id': '77', 'lighting': 's', 'race_guess': 'w', 'gender_guess': 'w', 'quality': '3', 'quality_eyes': '3', 'quality_mouth': '3', 'quality_ears': '3', 'quality_hair': '3', 'quality_neck': '3', 'facial_hair': '0.0', 'notes': None, 'race_common': 'white', 'gender_common': 'woman'}",21,50R,U,white,86.0,old,50R,U,00C,0,,,,,,,,,,,,,,,,,,,,
99,6251be3e410f6008cca533aa,Chrome,,main_task,1.0,1.0,chris,"4/9/2022, 10:11:26 AM",37035zqkhoqsrglo7lds,0.0-190.0,final_pilot_testing,,,,,,,,4038.7999999523163,../stimuli/version1_gray_lm/id117_50R_U.png,755734.0,0.0,203.0,31.0,retrieval,,,,,,,,,,,,,,,,,,,,,,,058,oddity,man,117,"{'muct_id': '417', 'lighting': 'w', 'race_guess': 'b', 'gender_guess': 'm', 'quality': '3', 'quality_eyes': '3', 'quality_mouth': '3', 'quality_ears': '3', 'quality_hair': '3', 'quality_neck': '3', 'facial_hair': '1.0', 'notes': 'mouth', 'race_common': 'black', 'gender_common': 'man'}",8,50R,U,black,75.0,old,50R,U,00C,0,,,,,,,,,,,,,,,,,,,,
100,6251be42410f6008cca533ab,Chrome,,main_task,1.0,1.0,chris,"4/9/2022, 10:11:29 AM",37035zqkhoqsrglo7lds,0.0-192.0,final_pilot_testing,,,,,,,,2739.399999976158,../stimuli/version1_gray_lm/id122_00C_U.png,758993.0,0.0,205.0,32.0,retrieval,,,,,,,,,,,,,,,,,,,,,,,086,oddity,man,122,"{'muct_id': '425', 'lighting': 'x', 'race_guess': 'b', 'gender_guess': 'm', 'quality': '3', 'quality_eyes': '3', 'quality_mouth': '3', 'quality_ears': '3', 'quality_hair': '3', 'quality_neck': '3', 'facial_hair': '2.0', 'notes': None, 'race_common': 'black', 'gender_common': 'man'}",22,50R,U,black,87.0,old,00C,U,50L,-50,,,,,,,,,,,,,,,,,,,,
101,6251be44410f6008cca533ac,Chrome,,main_task,1.0,1.0,chris,"4/9/2022, 10:11:32 AM",37035zqkhoqsrglo7lds,0.0-194.0,final_pilot_testing,,,,,,,,2151.5999999046326,../stimuli/version1_gray_lm/id102_00C_D.png,761892.0,0.0,207.0,33.0,retrieval,,,,,,,,,,,,,,,,,,,,,,,084,oddity,woman,102,"{'muct_id': '283', 'lighting': 't', 'race_guess': 'i', 'gender_guess': 'w', 'quality': '3', 'quality_eyes': '3', 'quality_mouth': '3', 'quality_ears': '3', 'quality_hair': '3', 'quality_neck': '3', 'facial_hair': '0.0', 'notes': 'pottu', 'race_common': 'white', 'gender_common': 'woman'}",5,00C,D,white,100.0,old,00C,D,00C,0,,,,,,,,,,,,,,,,,,,,
102,6251be47410f6008cca533ad,Chrome,,main_task,1.0,1.0,chris,"4/9/2022, 10:11:35 AM",37035zqkhoqsrglo7lds,0.0-196.0,final_pilot_testing,,,,,,,,2309.6999999284744,../stimuli/version1_gray_lm/id133_50L_U.png,764733.0,0.0,209.0,34.0,retrieval,,,,,,,,,,,,,,,,,,,,,,,035,oddity,woman,133,"{'muct_id': '601', 'lighting': 'y', 'race_guess': 'b', 'gender_guess': 'w', 'quality': '3', 'quality_eyes': '3', 'quality_mouth': '3', 'quality_ears': '3', 'quality_hair': '3', 'quality_neck': '3', 'facial_hair': '0.0', 'notes': 'mouth', 'race_common': 'black', 'gender_common': 'woman'}",34,00C,U,black,96.0,old,50L,U,50L,-50,,,,,,,,,,,,,,,,,,,,
103,6251be4b410f6008cca533ae,Chrome,,main_task,0.0,0.0,chris,"4/9/2022, 10:11:39 AM",37035zqkhoqsrglo7lds,0.0-198.0,final_pilot_testing,,,,,,,,3169.600000023842,../stimuli/version1_gray_lm/id060_50R_U.png,768435.0,0.0,211.0,35.0,retrieval,,,,,,,,,,,,,,,,,,,,,,,,,,060,"{'muct_id': '88', 'lighting': 'q', 'race_guess': 'b', 'gender_guess': 'w', 'quality': '3', 'quality_eyes': '3', 'quality_mouth': '3', 'quality_ears': '3', 'quality_hair': '3', 'quality_neck': '3', 'facial_hair': '0.0', 'notes': 'earrings', 'race_common': 'black', 'gender_common': 'woman'}",,,,,64.0,new,50R,U,,,,,,,,,,,,,,,,,,,,,,
104,6251be4f410f6008cca533af,Chrome,,main_task,1.0,0.0,chris,"4/9/2022, 10:11:43 AM",37035zqkhoqsrglo7lds,0.0-200.0,final_pilot_testing,,,,,,,,3971.100000023842,../stimuli/version1_gray_lm/id081_50L_C.png,772915.0,0.0,213.0,36.0,retrieval,,,,,,,,,,,,,,,,,,,,,,,,,,081,"{'muct_id': '241', 'lighting': 't', 'race_guess': 'u', 'gender_guess': 'm', 'quality': '3', 'quality_eyes': '3', 'quality_mouth': '3', 'quality_ears': '3', 'quality_hair': '3', 'quality_neck': '3', 'facial_hair': '1.0', 'notes': 'mouth', 'race_common': 'black', 'gender_common': 'man'}",,,,,35.0,new,50L,C,,,,,,,,,,,,,,,,,,,,,,
105,6251be53410f6008cca533b0,Chrome,,main_task,0.0,1.0,chris,"4/9/2022, 10:11:47 AM",37035zqkhoqsrglo7lds,0.0-202.0,final_pilot_testing,,,,,,,,2983.0,../stimuli/version1_gray_lm/id105_25R_C.png,776561.0,0.0,215.0,37.0,retrieval,,,,,,,,,,,,,,,,,,,,,,,065,oddity,man,105,"{'muct_id': '290', 'lighting': 't', 'race_guess': 'b', 'gender_guess': 'm', 'quality': '3', 'quality_eyes': '3', 'quality_mouth': '3', 'quality_ears': '3', 'quality_hair': '3', 'quality_neck': '3', 'facial_hair': '2.0', 'notes': None, 'race_common': 'black', 'gender_common': 'man'}",0,25R,C,black,39.0,old,25R,C,00C,0,,,,,,,,,,,,,,,,,,,,
106,6251be64410f6008cca533b1,Chrome,,main_task,0.0,1.0,chris,"4/9/2022, 10:12:04 AM",37035zqkhoqsrglo7lds,0.0-204.0,final_pilot_testing,,,,,,,,16417.799999952316,../stimuli/version1_gray_lm/id126_00C_C.png,793677.0,0.0,217.0,38.0,retrieval,,,,,,,,,,,,,,,,,,,,,,,016,oddity,woman,126,"{'muct_id': '434', 'lighting': 'w', 'race_guess': 'b', 'gender_guess': 'w', 'quality': '3', 'quality_eyes': '3', 'quality_mouth': '3', 'quality_ears': '3', 'quality_hair': '3', 'quality_neck': '3', 'facial_hair': '0.0', 'notes': 'earrings', 'race_common': 'black', 'gender_common': 'woman'}",24,50R,C,black,39.0,old,00C,C,50L,-50,,,,,,,,,,,,,,,,,,,,
107,6251be68410f6008cca533b2,Chrome,,main_task,0.0,0.0,chris,"4/9/2022, 10:12:08 AM",37035zqkhoqsrglo7lds,0.0-206.0,final_pilot_testing,,,,,,,,2184.2999999523163,../stimuli/version1_gray_lm/id144_00C_C.png,797050.0,0.0,219.0,39.0,retrieval,,,,,,,,,,,,,,,,,,,,,,,,,,144,"{'muct_id': '214', 'lighting': 'u', 'race_guess': 'b', 'gender_guess': 'w', 'quality': '2', 'quality_eyes': '2', 'quality_mouth': '3', 'quality_ears': '3', 'quality_hair': '3', 'quality_neck': '3', 'facial_hair': '0.0', 'notes': None, 'race_common': 'black', 'gender_common': 'woman'}",,,,,78.0,new,00C,C,,,,,,,,,,,,,,,,,,,,,,
108,6251be6b410f6008cca533b3,Chrome,,main_task,1.0,1.0,chris,"4/9/2022, 10:12:11 AM",37035zqkhoqsrglo7lds,0.0-208.0,final_pilot_testing,,,,,,,,3255.7000000476837,../stimuli/version1_gray_lm/id155_50L_U.png,800835.0,0.0,221.0,40.0,retrieval,,,,,,,,,,,,,,,,,,,,,,,088,oddity,woman,155,"{'muct_id': '615', 'lighting': 'z', 'race_guess': 'w', 'gender_guess': 'w', 'quality': '3', 'quality_eyes': '3', 'quality_mouth': '3', 'quality_ears': '3', 'quality_hair': '3', 'quality_neck': '3', 'facial_hair': '0.0', 'notes': 'earrings', 'race_common': 'white', 'gender_common': 'woman'}",37,50L,U,white,68.0,old,50L,U,00C,0,,,,,,,,,,,,,,,,,,,,
109,6251be70410f6008cca533b4,Chrome,,main_task,1.0,0.0,chris,"4/9/2022, 10:12:16 AM",37035zqkhoqsrglo7lds,0.0-210.0,final_pilot_testing,,,,,,,,3892.600000023842,../stimuli/version1_gray_lm/id040_50L_D.png,805265.0,0.0,223.0,41.0,retrieval,,,,,,,,,,,,,,,,,,,,,,,,,,040,"{'muct_id': '55', 'lighting': 'r', 'race_guess': 'b', 'gender_guess': 'm', 'quality': '3', 'quality_eyes': '3', 'quality_mouth': '3', 'quality_ears': '3', 'quality_hair': '3', 'quality_neck': '3', 'facial_hair': '3.0', 'notes': 'beard', 'race_common': 'black', 'gender_common': 'man'}",,,,,31.0,new,50L,D,,,,,,,,,,,,,,,,,,,,,,
110,6251be73410f6008cca533b5,Chrome,,main_task,1.0,0.0,chris,"4/9/2022, 10:12:19 AM",37035zqkhoqsrglo7lds,0.0-212.0,final_pilot_testing,,,,,,,,2675.899999976158,../stimuli/version1_gray_lm/id053_25R_D.png,808542.0,0.0,225.0,42.0,retrieval,,,,,,,,,,,,,,,,,,,,,,,,,,053,"{'muct_id': '79', 'lighting': 'r', 'race_guess': 'i', 'gender_guess': 'm', 'quality': '2', 'quality_eyes': '2', 'quality_mouth': '3', 'quality_ears': '3', 'quality_hair': '2', 'quality_neck': '3', 'facial_hair': '0.0', 'notes': None, 'race_common': 'white', 'gender_common': 'man'}",,,,,23.0,new,25R,D,,,,,,,,,,,,,,,,,,,,,,
111,6251be76410f6008cca533b6,Chrome,,main_task,1.0,1.0,chris,"4/9/2022, 10:12:22 AM",37035zqkhoqsrglo7lds,0.0-214.0,final_pilot_testing,,,,,,,,2756.7000000476837,../stimuli/version1_gray_lm/id124_00C_D.png,811799.0,0.0,227.0,43.0,retrieval,,,,,,,,,,,,,,,,,,,,,,,055,oddity,man,124,"{'muct_id': '431', 'lighting': 'x', 'race_guess': 'b', 'gender_guess': 'u', 'quality': '3', 'quality_eyes': '3', 'quality_mouth': '3', 'quality_ears': '3', 'quality_hair': '3', 'quality_neck': '3', 'facial_hair': '0.0', 'notes': 'mouth', 'race_common': 'black', 'gender_common': 'man'}",23,00C,D,black,100.0,old,00C,D,00C,0,,,,,,,,,,,,,,,,,,,,
112,6251be79410f6008cca533b7,Chrome,,main_task,1.0,0.0,chris,"4/9/2022, 10:12:25 AM",37035zqkhoqsrglo7lds,0.0-216.0,final_pilot_testing,,,,,,,,2197.7999999523163,../stimuli/version1_gray_lm/id050_50L_D.png,814510.0,0.0,229.0,44.0,retrieval,,,,,,,,,,,,,,,,,,,,,,,,,,050,"{'muct_id': '70', 'lighting': 'r', 'race_guess': 'w', 'gender_guess': 'm', 'quality': '3', 'quality_eyes': '3', 'quality_mouth': '3', 'quality_ears': '3', 'quality_hair': '3', 'quality_neck': '3', 'facial_hair': '4.0', 'notes': 'beard', 'race_common': 'white', 'gender_common': 'man'}",,,,,10.0,new,50L,D,,,,,,,,,,,,,,,,,,,,,,
113,6251be82410f6008cca533b8,Chrome,,main_task,1.0,0.0,chris,"4/9/2022, 10:12:34 AM",37035zqkhoqsrglo7lds,0.0-218.0,final_pilot_testing,,,,,,,,8280.800000071526,../stimuli/version1_gray_lm/id034_25L_D.png,823319.0,0.0,231.0,45.0,retrieval,,,,,,,,,,,,,,,,,,,,,,,,,,034,"{'muct_id': '45', 'lighting': 'q', 'race_guess': 'w', 'gender_guess': 'm', 'quality': '3', 'quality_eyes': '3', 'quality_mouth': '3', 'quality_ears': '3', 'quality_hair': '3', 'quality_neck': '3', 'facial_hair': '0.0', 'notes': None, 'race_common': 'white', 'gender_common': 'man'}",,,,,23.0,new,25L,D,,,,,,,,,,,,,,,,,,,,,,
114,6251be85410f6008cca533b9,Chrome,,main_task,0.0,1.0,chris,"4/9/2022, 10:12:37 AM",37035zqkhoqsrglo7lds,0.0-220.0,final_pilot_testing,,,,,,,,2157.100000023842,../stimuli/version1_gray_lm/id119_00C_U.png,826031.0,0.0,233.0,46.0,retrieval,,,,,,,,,,,,,,,,,,,,,,,097,oddity,man,119,"{'muct_id': '420', 'lighting': 'w', 'race_guess': 'b', 'gender_guess': 'm', 'quality': '3', 'quality_eyes': '3', 'quality_mouth': '3', 'quality_ears': '3', 'quality_hair': '3', 'quality_neck': '3', 'facial_hair': '0.0', 'notes': None, 'race_common': 'black', 'gender_common': 'man'}",15,50L,U,black,24.0,old,00C,U,50R,50,,,,,,,,,,,,,,,,,,,,
115,6251be88410f6008cca533ba,Chrome,,main_task,1.0,1.0,chris,"4/9/2022, 10:12:40 AM",37035zqkhoqsrglo7lds,0.0-222.0,final_pilot_testing,,,,,,,,3139.899999976158,../stimuli/version1_gray_lm/id101_50L_U.png,829678.0,0.0,235.0,47.0,retrieval,,,,,,,,,,,,,,,,,,,,,,,029,oddity,woman,101,"{'muct_id': '281', 'lighting': 't', 'race_guess': 'w', 'gender_guess': 'w', 'quality': '3', 'quality_eyes': '3', 'quality_mouth': '3', 'quality_ears': '3', 'quality_hair': '3', 'quality_neck': '3', 'facial_hair': '0.0', 'notes': None, 'race_common': 'white', 'gender_common': 'woman'}",1,00C,U,white,60.0,old,50L,U,50L,-50,,,,,,,,,,,,,,,,,,,,
116,6251be8b410f6008cca533bb,Chrome,,main_task,1.0,1.0,chris,"4/9/2022, 10:12:43 AM",37035zqkhoqsrglo7lds,0.0-224.0,final_pilot_testing,,,,,,,,2088.7999999523163,../stimuli/version1_gray_lm/id127_00C_D.png,832253.0,0.0,237.0,48.0,retrieval,,,,,,,,,,,,,,,,,,,,,,,022,oddity,woman,127,"{'muct_id': '435', 'lighting': 'x', 'race_guess': 'b', 'gender_guess': 'w', 'quality': '3', 'quality_eyes': '3', 'quality_mouth': '3', 'quality_ears': '3', 'quality_hair': '3', 'quality_neck': '3', 'facial_hair': '0.0', 'notes': 'bandana', 'race_common': 'black', 'gender_common': 'woman'}",25,50R,D,black,66.0,old,00C,D,50L,-50,,,,,,,,,,,,,,,,,,,,
117,6251be8e410f6008cca533bc,Chrome,,main_task,0.0,1.0,chris,"4/9/2022, 10:12:46 AM",37035zqkhoqsrglo7lds,0.0-226.0,final_pilot_testing,,,,,,,,2639.100000023842,../stimuli/version1_gray_lm/id145_25L_D.png,835565.0,0.0,239.0,49.0,retrieval,,,,,,,,,,,,,,,,,,,,,,,032,oddity,man,145,"{'muct_id': '230', 'lighting': 'u', 'race_guess': 'w', 'gender_guess': 'm', 'quality': '3', 'quality_eyes': '3', 'quality_mouth': '3', 'quality_ears': '3', 'quality_hair': '3', 'quality_neck': '3', 'facial_hair': '0.0', 'notes': 'hair', 'race_common': 'white', 'gender_common': 'man'}",27,25R,D,white,20.0,old,25L,D,50L,-50,,,,,,,,,,,,,,,,,,,,
118,6251be94410f6008cca533bd,Chrome,,main_task,0.0,1.0,chris,"4/9/2022, 10:12:52 AM",37035zqkhoqsrglo7lds,0.0-228.0,final_pilot_testing,,,,,,,,4851.799999952316,../stimuli/version1_gray_lm/id104_00C_C.png,841117.0,0.0,241.0,50.0,retrieval,,,,,,,,,,,,,,,,,,,,,,,074,oddity,man,104,"{'muct_id': '287', 'lighting': 't', 'race_guess': 'w', 'gender_guess': 'm', 'quality': '3', 'quality_eyes': '3', 'quality_mouth': '3', 'quality_ears': '3', 'quality_hair': '3', 'quality_neck': '3', 'facial_hair': '2.0', 'notes': None, 'race_common': 'white', 'gender_common': 'man'}",4,50R,C,white,26.0,old,00C,C,50L,-50,,,,,,,,,,,,,,,,,,,,
119,6251be97410f6008cca533be,Chrome,,main_task,1.0,1.0,chris,"4/9/2022, 10:12:55 AM",37035zqkhoqsrglo7lds,0.0-230.0,final_pilot_testing,,,,,,,,3174.1999999284744,../stimuli/version1_gray_lm/id123_00C_D.png,844933.0,0.0,243.0,51.0,retrieval,,,,,,,,,,,,,,,,,,,,,,,051,oddity,woman,123,"{'muct_id': '76', 'lighting': 'q', 'race_guess': 'w', 'gender_guess': 'w', 'quality': '2', 'quality_eyes': '2', 'quality_mouth': '3', 'quality_ears': '2', 'quality_hair': '2', 'quality_neck': '3', 'facial_hair': '0.0', 'notes': 'hair', 'race_common': 'white', 'gender_common': 'woman'}",17,50R,D,white,64.0,old,00C,D,50L,-50,,,,,,,,,,,,,,,,,,,,
120,6251be9a410f6008cca533bf,Chrome,,main_task,0.0,1.0,chris,"4/9/2022, 10:12:58 AM",37035zqkhoqsrglo7lds,0.0-232.0,final_pilot_testing,,,,,,,,2475.8000000715256,../stimuli/version1_gray_lm/id113_50R_C.png,847954.0,0.0,245.0,52.0,retrieval,,,,,,,,,,,,,,,,,,,,,,,056,oddity,man,113,"{'muct_id': '407', 'lighting': 'x', 'race_guess': 'u', 'gender_guess': 'm', 'quality': '3', 'quality_eyes': '3', 'quality_mouth': '3', 'quality_ears': '3', 'quality_hair': '3', 'quality_neck': '3', 'facial_hair': '3.0', 'notes': 'beard', 'race_common': 'black', 'gender_common': 'man'}",11,50R,C,black,34.0,old,50R,C,00C,0,,,,,,,,,,,,,,,,,,,,
121,6251be9d410f6008cca533c0,Chrome,,main_task,1.0,1.0,chris,"4/9/2022, 10:13:01 AM",37035zqkhoqsrglo7lds,0.0-234.0,final_pilot_testing,,,,,,,,2412.0,../stimuli/version1_gray_lm/id109_00C_C.png,850846.0,0.0,247.0,53.0,retrieval,,,,,,,,,,,,,,,,,,,,,,,013,oddity,woman,109,"{'muct_id': '401', 'lighting': 'w', 'race_guess': 'w', 'gender_guess': 'w', 'quality': '3', 'quality_eyes': '3', 'quality_mouth': '3', 'quality_ears': '3', 'quality_hair': '3', 'quality_neck': '3', 'facial_hair': '0.0', 'notes': 'mouth', 'race_common': 'white', 'gender_common': 'woman'}",10,00C,C,white,80.0,old,00C,C,00C,0,,,,,,,,,,,,,,,,,,,,
122,6251bea1410f6008cca533c1,Chrome,,main_task,1.0,0.0,chris,"4/9/2022, 10:13:05 AM",37035zqkhoqsrglo7lds,0.0-236.0,final_pilot_testing,,,,,,,,3619.5,../stimuli/version1_gray_lm/id063_50R_C.png,854956.0,0.0,249.0,54.0,retrieval,,,,,,,,,,,,,,,,,,,,,,,,,,063,"{'muct_id': '203', 'lighting': 'u', 'race_guess': 'i', 'gender_guess': 'm', 'quality': '2', 'quality_eyes': '2', 'quality_mouth': '3', 'quality_ears': '3', 'quality_hair': '3', 'quality_neck': '3', 'facial_hair': '2.0', 'notes': 'mouth', 'race_common': 'white', 'gender_common': 'man'}",,,,,25.0,new,50R,C,,,,,,,,,,,,,,,,,,,,,,
123,6251bea6410f6008cca533c2,Chrome,,main_task,1.0,0.0,chris,"4/9/2022, 10:13:10 AM",37035zqkhoqsrglo7lds,0.0-238.0,final_pilot_testing,,,,,,,,3598.100000023842,../stimuli/version1_gray_lm/id092_50L_U.png,859091.0,0.0,251.0,55.0,retrieval,,,,,,,,,,,,,,,,,,,,,,,,,,092,"{'muct_id': '261', 'lighting': 'v', 'race_guess': 'w', 'gender_guess': 'm', 'quality': '2', 'quality_eyes': '2', 'quality_mouth': '3', 'quality_ears': '3', 'quality_hair': '3', 'quality_neck': '3', 'facial_hair': '0.0', 'notes': None, 'race_common': 'white', 'gender_common': 'man'}",,,,,1.0,new,50L,U,,,,,,,,,,,,,,,,,,,,,,
124,6251beac410f6008cca533c3,Chrome,,main_task,0.0,1.0,chris,"4/9/2022, 10:13:16 AM",37035zqkhoqsrglo7lds,0.0-240.0,final_pilot_testing,,,,,,,,5426.700000047684,../stimuli/version1_gray_lm/id118_50R_U.png,865503.0,0.0,253.0,56.0,retrieval,,,,,,,,,,,,,,,,,,,,,,,001,oddity,man,118,"{'muct_id': '419', 'lighting': 'x', 'race_guess': 'b', 'gender_guess': 'm', 'quality': '3', 'quality_eyes': '3', 'quality_mouth': '3', 'quality_ears': '3', 'quality_hair': '3', 'quality_neck': '3', 'facial_hair': '1.0', 'notes': None, 'race_common': 'black', 'gender_common': 'man'}",13,00C,U,black,35.0,old,50R,U,50R,50,,,,,,,,,,,,,,,,,,,,
125,6251beb1410f6008cca533c4,Chrome,,main_task,1.0,0.0,chris,"4/9/2022, 10:13:21 AM",37035zqkhoqsrglo7lds,0.0-242.0,final_pilot_testing,,,,,,,,4832.300000071526,../stimuli/version1_gray_lm/id043_00C_U.png,870968.0,0.0,255.0,57.0,retrieval,,,,,,,,,,,,,,,,,,,,,,,,,,043,"{'muct_id': '58', 'lighting': 'q', 'race_guess': 'w', 'gender_guess': 'm', 'quality': '3', 'quality_eyes': '3', 'quality_mouth': '3', 'quality_ears': '3', 'quality_hair': '3', 'quality_neck': '3', 'facial_hair': '0.0', 'notes': None, 'race_common': 'white', 'gender_common': 'man'}",,,,,34.0,new,00C,U,,,,,,,,,,,,,,,,,,,,,,
126,6251beb6410f6008cca533c5,Chrome,,main_task,1.0,1.0,chris,"4/9/2022, 10:13:26 AM",37035zqkhoqsrglo7lds,0.0-244.0,final_pilot_testing,,,,,,,,4031.5,../stimuli/version1_gray_lm/id128_25R_U.png,875783.0,0.0,257.0,58.0,retrieval,,,,,,,,,,,,,,,,,,,,,,,091,oddity,man,128,"{'muct_id': '436', 'lighting': 'w', 'race_guess': 'b', 'gender_guess': 'm', 'quality': '3', 'quality_eyes': '3', 'quality_mouth': '3', 'quality_ears': '3', 'quality_hair': '3', 'quality_neck': '3', 'facial_hair': '3.0', 'notes': 'beard', 'race_common': 'black', 'gender_common': 'man'}",29,25R,U,black,68.0,old,25R,U,00C,0,,,,,,,,,,,,,,,,,,,,
127,6251beb9410f6008cca533c6,Chrome,,main_task,1.0,1.0,chris,"4/9/2022, 10:13:29 AM",37035zqkhoqsrglo7lds,0.0-246.0,final_pilot_testing,,,,,,,,2401.2999999523163,../stimuli/version1_gray_lm/id100_25R_D.png,878656.0,0.0,259.0,59.0,retrieval,,,,,,,,,,,,,,,,,,,,,,,041,oddity,man,100,"{'muct_id': '280', 'lighting': 'u', 'race_guess': 'w', 'gender_guess': 'm', 'quality': '3', 'quality_eyes': '3', 'quality_mouth': '3', 'quality_ears': '3', 'quality_hair': '3', 'quality_neck': '3', 'facial_hair': '0.0', 'notes': None, 'race_common': 'white', 'gender_common': 'man'}",3,25R,D,white,71.0,old,25R,D,00C,0,,,,,,,,,,,,,,,,,,,,
128,6251bebc410f6008cca533c7,Chrome,,main_task,1.0,1.0,chris,"4/9/2022, 10:13:32 AM",37035zqkhoqsrglo7lds,0.0-248.0,final_pilot_testing,,,,,,,,2237.2000000476837,../stimuli/version1_gray_lm/id149_00C_D.png,881396.0,0.0,261.0,60.0,retrieval,,,,,,,,,,,,,,,,,,,,,,,002,oddity,man,149,"{'muct_id': '416', 'lighting': 'w', 'race_guess': 'w', 'gender_guess': 'm', 'quality': '3', 'quality_eyes': '3', 'quality_mouth': '3', 'quality_ears': '3', 'quality_hair': '3', 'quality_neck': '3', 'facial_hair': '2.0', 'notes': None, 'race_common': 'white', 'gender_common': 'man'}",28,00C,D,white,79.0,old,00C,D,00C,0,,,,,,,,,,,,,,,,,,,,
129,6251bec3410f6008cca533c8,Chrome,,main_task,1.0,1.0,chris,"4/9/2022, 10:13:39 AM",37035zqkhoqsrglo7lds,0.0-250.0,final_pilot_testing,,,,,,,,6589.5,../stimuli/version1_gray_lm/id148_00C_D.png,888488.0,0.0,263.0,61.0,retrieval,,,,,,,,,,,,,,,,,,,,,,,017,oddity,woman,148,"{'muct_id': '415', 'lighting': 'w', 'race_guess': 'w', 'gender_guess': 'w', 'quality': '3', 'quality_eyes': '3', 'quality_mouth': '3', 'quality_ears': '3', 'quality_hair': '3', 'quality_neck': '3', 'facial_hair': '0.0', 'notes': None, 'race_common': 'white', 'gender_common': 'woman'}",31,00C,D,white,59.0,old,00C,D,00C,0,,,,,,,,,,,,,,,,,,,,
130,6251bec6410f6008cca533c9,Chrome,,main_task,1.0,1.0,chris,"4/9/2022, 10:13:42 AM",37035zqkhoqsrglo7lds,0.0-252.0,final_pilot_testing,,,,,,,,2317.1999999284744,../stimuli/version1_gray_lm/id114_25R_D.png,891321.0,0.0,265.0,62.0,retrieval,,,,,,,,,,,,,,,,,,,,,,,007,oddity,woman,114,"{'muct_id': '410', 'lighting': 'w', 'race_guess': 'w', 'gender_guess': 'w', 'quality': '3', 'quality_eyes': '3', 'quality_mouth': '3', 'quality_ears': '3', 'quality_hair': '3', 'quality_neck': '3', 'facial_hair': '0.0', 'notes': 'makeup mouth', 'race_common': 'white', 'gender_common': 'woman'}",9,25L,D,white,63.0,old,25R,D,50R,50,,,,,,,,,,,,,,,,,,,,
131,6251becb410f6008cca533ca,Chrome,,main_task,1.0,0.0,chris,"4/9/2022, 10:13:47 AM",37035zqkhoqsrglo7lds,0.0-254.0,final_pilot_testing,,,,,,,,4632.600000023842,../stimuli/version1_gray_lm/id021_50L_D.png,896446.0,0.0,267.0,63.0,retrieval,,,,,,,,,,,,,,,,,,,,,,,,,,021,"{'muct_id': '25', 'lighting': 'r', 'race_guess': 'b', 'gender_guess': 'm', 'quality': '3', 'quality_eyes': '3', 'quality_mouth': '3', 'quality_ears': '3', 'quality_hair': '3', 'quality_neck': '3', 'facial_hair': '2.0', 'notes': None, 'race_common': 'black', 'gender_common': 'man'}",,,,,34.0,new,50L,D,,,,,,,,,,,,,,,,,,,,,,
132,6251bece410f6008cca533cb,Chrome,,main_task,0.0,1.0,chris,"4/9/2022, 10:13:50 AM",37035zqkhoqsrglo7lds,0.0-256.0,final_pilot_testing,,,,,,,,2514.5,../stimuli/version1_gray_lm/id146_50R_U.png,899600.0,0.0,269.0,64.0,retrieval,,,,,,,,,,,,,,,,,,,,,,,156,oddity,man,146,"{'muct_id': '254', 'lighting': 'v', 'race_guess': 'w', 'gender_guess': 'm', 'quality': '2', 'quality_eyes': '2', 'quality_mouth': '3', 'quality_ears': '3', 'quality_hair': '2', 'quality_neck': '3', 'facial_hair': '0.0', 'notes': 'hair', 'race_common': 'white', 'gender_common': 'man'}",26,00C,U,white,23.0,old,50R,U,50R,50,,,,,,,,,,,,,,,,,,,,
133,6251bed2410f6008cca533cc,Chrome,,main_task,1.0,0.0,chris,"4/9/2022, 10:13:54 AM",37035zqkhoqsrglo7lds,0.0-258.0,final_pilot_testing,,,,,,,,3109.0999999046326,../stimuli/version1_gray_lm/id073_50L_D.png,903262.0,0.0,271.0,65.0,retrieval,,,,,,,,,,,,,,,,,,,,,,,,,,073,"{'muct_id': '225', 'lighting': 'u', 'race_guess': 'w', 'gender_guess': 'm', 'quality': '3', 'quality_eyes': '3', 'quality_mouth': '3', 'quality_ears': '3', 'quality_hair': '3', 'quality_neck': '3', 'facial_hair': '2.0', 'notes': None, 'race_common': 'white', 'gender_common': 'man'}",,,,,39.0,new,50L,D,,,,,,,,,,,,,,,,,,,,,,
134,6251bedb410f6008cca533cd,Chrome,,main_task,0.0,1.0,chris,"4/9/2022, 10:14:03 AM",37035zqkhoqsrglo7lds,0.0-260.0,final_pilot_testing,,,,,,,,8439.5,../stimuli/version1_gray_lm/id116_50R_U.png,912426.0,0.0,273.0,66.0,retrieval,,,,,,,,,,,,,,,,,,,,,,,039,oddity,man,116,"{'muct_id': '414', 'lighting': 'w', 'race_guess': 'w', 'gender_guess': 'm', 'quality': '3', 'quality_eyes': '3', 'quality_mouth': '3', 'quality_ears': '3', 'quality_hair': '3', 'quality_neck': '3', 'facial_hair': '0.0', 'notes': None, 'race_common': 'white', 'gender_common': 'man'}",12,00C,U,white,30.0,old,50R,U,50R,50,,,,,,,,,,,,,,,,,,,,
135,6251bedf410f6008cca533ce,Chrome,,main_task,1.0,0.0,chris,"4/9/2022, 10:14:07 AM",37035zqkhoqsrglo7lds,0.0-262.0,final_pilot_testing,,,,,,,,3129.100000023842,../stimuli/version1_gray_lm/id030_00C_D.png,916049.0,0.0,275.0,67.0,retrieval,,,,,,,,,,,,,,,,,,,,,,,,,,030,"{'muct_id': '41', 'lighting': 'r', 'race_guess': 'b', 'gender_guess': 'm', 'quality': '3', 'quality_eyes': '3', 'quality_mouth': '3', 'quality_ears': '3', 'quality_hair': '3', 'quality_neck': '3', 'facial_hair': '0.0', 'notes': None, 'race_common': 'black', 'gender_common': 'man'}",,,,,39.0,new,00C,D,,,,,,,,,,,,,,,,,,,,,,
136,6251bee3410f6008cca533cf,Chrome,,main_task,0.0,1.0,chris,"4/9/2022, 10:14:11 AM",37035zqkhoqsrglo7lds,0.0-264.0,final_pilot_testing,,,,,,,,3504.7000000476837,../stimuli/version1_gray_lm/id103_50R_D.png,920171.0,0.0,277.0,68.0,retrieval,,,,,,,,,,,,,,,,,,,,,,,027,oddity,woman,103,"{'muct_id': '285', 'lighting': 'v', 'race_guess': 'b', 'gender_guess': 'w', 'quality': '3', 'quality_eyes': '3', 'quality_mouth': '3', 'quality_ears': '3', 'quality_hair': '3', 'quality_neck': '3', 'facial_hair': '0.0', 'notes': 'earrings', 'race_common': 'black', 'gender_common': 'woman'}",2,00C,D,black,8.0,old,50R,D,50R,50,,,,,,,,,,,,,,,,,,,,
137,6251bee5410f6008cca533d0,Chrome,,main_task,0.0,1.0,chris,"4/9/2022, 10:14:13 AM",37035zqkhoqsrglo7lds,0.0-266.0,final_pilot_testing,,,,,,,,2242.2999999523163,../stimuli/version1_gray_lm/id125_50R_D.png,922897.0,0.0,279.0,69.0,retrieval,,,,,,,,,,,,,,,,,,,,,,,018,oddity,woman,125,"{'muct_id': '433', 'lighting': 'x', 'race_guess': 'w', 'gender_guess': 'w', 'quality': '3', 'quality_eyes': '3', 'quality_mouth': '3', 'quality_ears': '3', 'quality_hair': '3', 'quality_neck': '3', 'facial_hair': '0.0', 'notes': None, 'race_common': 'white', 'gender_common': 'woman'}",18,00C,D,white,25.0,old,50R,D,50R,50,,,,,,,,,,,,,,,,,,,,
