,_id,browser,choice,collection,correct,correct_response,database,datetime,experiment_id,internal_node_id,iteration,key_press,oddity_gender,oddity_identity,oddity_index,oddity_race,oddity_tiltLR,oddity_tiltUD,rt,stimulus,time_elapsed,timed_out,trial_index,trial_number,trial_type,typicals_gender,typicals_identity,typicals_indices,typicals_race,typicals_tiltsLR,typicals_tiltsUD,practice_threshold_met,oddity_meta,typicals_meta,button_pressed,last_trial_type,prediction,choice_category,choice_object,oddity_category,oddity_name,oddity_type,stimulus_response_map,typical_category,typical_indices,typical_name,variation_level,encoding_pair,encoding_type,gender,identity,meta,original_index,original_tiltLR,original_tiltUD,race,response,retrieval_condition,tiltLR,tiltUD,tilt_change,tilt_difference,original_tilt,encoding_accuracy,encoding_avg_rt,encoding_n_trials,experimental_duration,filler_accuracy,filler_avg_rt,filler_n_trials,params,retrieval_accuracy,retrieval_avg_rt,retrieval_n_trials,total_bonus,total_payment,age,gender_other,latinx,session_id,study_id,subject_id
5346,6263588f06b19921fe99c57e,Chrome,1.0,main_task,1.0,1.0,chris,"4/22/2022, 6:38:23 PM",pjd0b7zw3bepkgo6ol2s,0.0-2.0-0.0,pilot_prolific_no_filler,37,woman,106,0.0,latinx,25L,D,1422.0,"['../stimuli/version1_gray_lm/id106_25L_D.png', '../stimuli/version1_gray_lm/id107_00C_C.png', '../stimuli/version1_gray_lm/id107_50R_U.png']",33371.0,0.0,2.0,1.0,encoding_practice,man,107,"[1, 2]",latinx,"['00C', '50R']","['C', 'U']",,,,,,,,,,,,,,,,,,,,,,,,,,,,,,,,,,,,,,,,,,,,,,,,,62635863c6ba26583dc286d3,62635315c2c7645fef78b5e5,5adeb4e9f6b58c0001fa70aa
5347,6263589706b19921fe99c57f,Chrome,3.0,main_task,1.0,3.0,chris,"4/22/2022, 6:38:30 PM",pjd0b7zw3bepkgo6ol2s,0.0-2.1-0.1,pilot_prolific_no_filler,40,woman,106,2.0,latinx,00C,U,1287.0,"['../stimuli/version1_gray_lm/id107_50R_C.png', '../stimuli/version1_gray_lm/id107_50L_D.png', '../stimuli/version1_gray_lm/id106_00C_U.png']",40826.0,0.0,4.0,2.0,encoding_practice,man,107,"[0, 1]",latinx,"['50R', '50L']","['C', 'D']",,,,,,,,,,,,,,,,,,,,,,,,,,,,,,,,,,,,,,,,,,,,,,,,,62635863c6ba26583dc286d3,62635315c2c7645fef78b5e5,5adeb4e9f6b58c0001fa70aa
5348,6263589906b19921fe99c580,Chrome,3.0,main_task,1.0,3.0,chris,"4/22/2022, 6:38:32 PM",pjd0b7zw3bepkgo6ol2s,0.0-2.2-0.2,pilot_prolific_no_filler,40,man,107,2.0,latinx,25L,C,1247.0,"['../stimuli/version1_gray_lm/id108_50R_D.png', '../stimuli/version1_gray_lm/id108_00C_U.png', '../stimuli/version1_gray_lm/id107_25L_C.png']",43082.0,0.0,6.0,3.0,encoding_practice,woman,108,"[0, 1]",latinx,"['50R', '00C']","['D', 'U']",1.0,,,,,,,,,,,,,,,,,,,,,,,,,,,,,,,,,,,,,,,,,,,,,,,,62635863c6ba26583dc286d3,62635315c2c7645fef78b5e5,5adeb4e9f6b58c0001fa70aa
5349,6263589d06b19921fe99c581,Chrome,1.0,main_task,1.0,1.0,chris,"4/22/2022, 6:38:36 PM",pjd0b7zw3bepkgo6ol2s,0.0-4.0,pilot_prolific_no_filler,37,man,105,0.0,black,25R,U,1551.0,"['../stimuli/version1_gray_lm/id105_25R_U.png', '../stimuli/version1_gray_lm/id081_50L_C.png', '../stimuli/version1_gray_lm/id081_00C_D.png']",47114.0,0.0,9.0,1.0,encoding,man,081,"[1, 2]",black,"['50L', '00C']","['C', 'D']",,"{'muct_id': '290', 'lighting': 't', 'race_guess': 'b', 'gender_guess': 'm', 'quality': '3', 'quality_eyes': '3', 'quality_mouth': '3', 'quality_ears': '3', 'quality_hair': '3', 'quality_neck': '3', 'facial_hair': '2.0', 'notes': None, 'race_common': 'black', 'gender_common': 'man'}","{'muct_id': '241', 'lighting': 't', 'race_guess': 'u', 'gender_guess': 'm', 'quality': '3', 'quality_eyes': '3', 'quality_mouth': '3', 'quality_ears': '3', 'quality_hair': '3', 'quality_neck': '3', 'facial_hair': '1.0', 'notes': 'mouth', 'race_common': 'black', 'gender_common': 'man'}",,,,,,,,,,,,,,,,,,,,,,,,,,,,,,,,,,,,,,,,,,,,,,62635863c6ba26583dc286d3,62635315c2c7645fef78b5e5,5adeb4e9f6b58c0001fa70aa
5350,626358a006b19921fe99c582,Chrome,2.0,main_task,1.0,2.0,chris,"4/22/2022, 6:38:39 PM",pjd0b7zw3bepkgo6ol2s,0.0-6.0,pilot_prolific_no_filler,39,man,100,1.0,white,00C,U,1792.0,"['../stimuli/version1_gray_lm/id034_50R_D.png', '../stimuli/version1_gray_lm/id100_00C_U.png', '../stimuli/version1_gray_lm/id034_50L_C.png']",49811.0,0.0,11.0,2.0,encoding,man,034,"[0, 2]",white,"['50R', '50L']","['D', 'C']",,"{'muct_id': '280', 'lighting': 'u', 'race_guess': 'w', 'gender_guess': 'm', 'quality': '3', 'quality_eyes': '3', 'quality_mouth': '3', 'quality_ears': '3', 'quality_hair': '3', 'quality_neck': '3', 'facial_hair': '0.0', 'notes': None, 'race_common': 'white', 'gender_common': 'man'}","{'muct_id': '45', 'lighting': 'q', 'race_guess': 'w', 'gender_guess': 'm', 'quality': '3', 'quality_eyes': '3', 'quality_mouth': '3', 'quality_ears': '3', 'quality_hair': '3', 'quality_neck': '3', 'facial_hair': '0.0', 'notes': None, 'race_common': 'white', 'gender_common': 'man'}",,,,,,,,,,,,,,,,,,,,,,,,,,,,,,,,,,,,,,,,,,,,,,62635863c6ba26583dc286d3,62635315c2c7645fef78b5e5,5adeb4e9f6b58c0001fa70aa
5351,626358a206b19921fe99c583,Chrome,3.0,main_task,1.0,3.0,chris,"4/22/2022, 6:38:41 PM",pjd0b7zw3bepkgo6ol2s,0.0-8.0,pilot_prolific_no_filler,40,woman,103,2.0,black,25L,D,1551.0,"['../stimuli/version1_gray_lm/id077_00C_C.png', '../stimuli/version1_gray_lm/id077_50R_U.png', '../stimuli/version1_gray_lm/id103_25L_D.png']",52066.0,0.0,13.0,3.0,encoding,woman,077,"[0, 1]",black,"['00C', '50R']","['C', 'U']",,"{'muct_id': '285', 'lighting': 'v', 'race_guess': 'b', 'gender_guess': 'w', 'quality': '3', 'quality_eyes': '3', 'quality_mouth': '3', 'quality_ears': '3', 'quality_hair': '3', 'quality_neck': '3', 'facial_hair': '0.0', 'notes': 'earrings', 'race_common': 'black', 'gender_common': 'woman'}","{'muct_id': '235', 'lighting': 'u', 'race_guess': 'b', 'gender_guess': 'w', 'quality': '3', 'quality_eyes': '3', 'quality_mouth': '3', 'quality_ears': '3', 'quality_hair': '3', 'quality_neck': '3', 'facial_hair': '0.0', 'notes': 'earrings', 'race_common': 'black', 'gender_common': 'woman'}",,,,,,,,,,,,,,,,,,,,,,,,,,,,,,,,,,,,,,,,,,,,,,62635863c6ba26583dc286d3,62635315c2c7645fef78b5e5,5adeb4e9f6b58c0001fa70aa
5352,626358a406b19921fe99c584,Chrome,3.0,main_task,0.0,2.0,chris,"4/22/2022, 6:38:44 PM",pjd0b7zw3bepkgo6ol2s,0.0-10.0,pilot_prolific_no_filler,40,woman,101,1.0,white,50R,D,1567.0,"['../stimuli/version1_gray_lm/id017_25L_U.png', '../stimuli/version1_gray_lm/id101_50R_D.png', '../stimuli/version1_gray_lm/id017_00C_C.png']",54322.0,0.0,15.0,4.0,encoding,woman,017,"[0, 2]",white,"['25L', '00C']","['U', 'C']",,"{'muct_id': '281', 'lighting': 't', 'race_guess': 'w', 'gender_guess': 'w', 'quality': '3', 'quality_eyes': '3', 'quality_mouth': '3', 'quality_ears': '3', 'quality_hair': '3', 'quality_neck': '3', 'facial_hair': '0.0', 'notes': None, 'race_common': 'white', 'gender_common': 'woman'}","{'muct_id': '19', 'lighting': 'r', 'race_guess': 'w', 'gender_guess': 'w', 'quality': '3', 'quality_eyes': '3', 'quality_mouth': '3', 'quality_ears': '3', 'quality_hair': '3', 'quality_neck': '3', 'facial_hair': '0.0', 'notes': None, 'race_common': 'white', 'gender_common': 'woman'}",,,,,,,,,,,,,,,,,,,,,,,,,,,,,,,,,,,,,,,,,,,,,,62635863c6ba26583dc286d3,62635315c2c7645fef78b5e5,5adeb4e9f6b58c0001fa70aa
5353,626358a606b19921fe99c585,Chrome,3.0,main_task,1.0,3.0,chris,"4/22/2022, 6:38:46 PM",pjd0b7zw3bepkgo6ol2s,0.0-12.0,pilot_prolific_no_filler,40,man,112,2.0,black,50L,D,1447.0,"['../stimuli/version1_gray_lm/id090_25R_U.png', '../stimuli/version1_gray_lm/id090_00C_C.png', '../stimuli/version1_gray_lm/id112_50L_D.png']",56394.0,0.0,17.0,5.0,encoding,man,090,"[0, 1]",black,"['25R', '00C']","['U', 'C']",,"{'muct_id': '406', 'lighting': 'w', 'race_guess': 'b', 'gender_guess': 'm', 'quality': '3', 'quality_eyes': '3', 'quality_mouth': '3', 'quality_ears': '3', 'quality_hair': '3', 'quality_neck': '3', 'facial_hair': '1.0', 'notes': None, 'race_common': 'black', 'gender_common': 'man'}","{'muct_id': '259', 'lighting': 'v', 'race_guess': 'b', 'gender_guess': 'm', 'quality': '3', 'quality_eyes': '3', 'quality_mouth': '3', 'quality_ears': '3', 'quality_hair': '3', 'quality_neck': '3', 'facial_hair': '2.0', 'notes': None, 'race_common': 'black', 'gender_common': 'man'}",,,,,,,,,,,,,,,,,,,,,,,,,,,,,,,,,,,,,,,,,,,,,,62635863c6ba26583dc286d3,62635315c2c7645fef78b5e5,5adeb4e9f6b58c0001fa70aa
5354,626358a806b19921fe99c586,Chrome,3.0,main_task,1.0,3.0,chris,"4/22/2022, 6:38:47 PM",pjd0b7zw3bepkgo6ol2s,0.0-14.0,pilot_prolific_no_filler,40,man,104,2.0,white,00C,C,1287.0,"['../stimuli/version1_gray_lm/id052_25L_U.png', '../stimuli/version1_gray_lm/id052_25R_D.png', '../stimuli/version1_gray_lm/id104_00C_C.png']",58250.0,0.0,19.0,6.0,encoding,man,052,"[0, 1]",white,"['25L', '25R']","['U', 'D']",,"{'muct_id': '287', 'lighting': 't', 'race_guess': 'w', 'gender_guess': 'm', 'quality': '3', 'quality_eyes': '3', 'quality_mouth': '3', 'quality_ears': '3', 'quality_hair': '3', 'quality_neck': '3', 'facial_hair': '2.0', 'notes': None, 'race_common': 'white', 'gender_common': 'man'}","{'muct_id': '75', 'lighting': 'q', 'race_guess': 'w', 'gender_guess': 'm', 'quality': '3', 'quality_eyes': '3', 'quality_mouth': '3', 'quality_ears': '3', 'quality_hair': '3', 'quality_neck': '3', 'facial_hair': '4.0', 'notes': 'beard', 'race_common': 'white', 'gender_common': 'man'}",,,,,,,,,,,,,,,,,,,,,,,,,,,,,,,,,,,,,,,,,,,,,,62635863c6ba26583dc286d3,62635315c2c7645fef78b5e5,5adeb4e9f6b58c0001fa70aa
5355,626358aa06b19921fe99c587,Chrome,3.0,main_task,0.0,2.0,chris,"4/22/2022, 6:38:49 PM",pjd0b7zw3bepkgo6ol2s,0.0-16.0,pilot_prolific_no_filler,40,woman,111,1.0,black,50R,C,1064.0,"['../stimuli/version1_gray_lm/id142_25L_U.png', '../stimuli/version1_gray_lm/id111_50R_C.png', '../stimuli/version1_gray_lm/id142_00C_D.png']",59883.0,0.0,21.0,7.0,encoding,woman,142,"[0, 2]",black,"['25L', '00C']","['U', 'D']",,"{'muct_id': '405', 'lighting': 'w', 'race_guess': 'b', 'gender_guess': 'w', 'quality': '3', 'quality_eyes': '3', 'quality_mouth': '3', 'quality_ears': '3', 'quality_hair': '3', 'quality_neck': '3', 'facial_hair': '0.0', 'notes': 'hair earrings', 'race_common': 'black', 'gender_common': 'woman'}","{'muct_id': '87', 'lighting': 'r', 'race_guess': 'b', 'gender_guess': 'w', 'quality': '3', 'quality_eyes': '3', 'quality_mouth': '3', 'quality_ears': '3', 'quality_hair': '3', 'quality_neck': '3', 'facial_hair': '0.0', 'notes': 'earrings hair', 'race_common': 'black', 'gender_common': 'woman'}",,,,,,,,,,,,,,,,,,,,,,,,,,,,,,,,,,,,,,,,,,,,,,62635863c6ba26583dc286d3,62635315c2c7645fef78b5e5,5adeb4e9f6b58c0001fa70aa
5356,626358ab06b19921fe99c588,Chrome,2.0,main_task,0.0,1.0,chris,"4/22/2022, 6:38:51 PM",pjd0b7zw3bepkgo6ol2s,0.0-18.0,pilot_prolific_no_filler,39,woman,102,0.0,white,00C,C,1151.0,"['../stimuli/version1_gray_lm/id102_00C_C.png', '../stimuli/version1_gray_lm/id029_50R_U.png', '../stimuli/version1_gray_lm/id029_25L_D.png']",61698.0,0.0,23.0,8.0,encoding,woman,029,"[1, 2]",white,"['50R', '25L']","['U', 'D']",,"{'muct_id': '283', 'lighting': 't', 'race_guess': 'i', 'gender_guess': 'w', 'quality': '3', 'quality_eyes': '3', 'quality_mouth': '3', 'quality_ears': '3', 'quality_hair': '3', 'quality_neck': '3', 'facial_hair': '0.0', 'notes': 'pottu', 'race_common': 'white', 'gender_common': 'woman'}","{'muct_id': '39', 'lighting': 'r', 'race_guess': 'w', 'gender_guess': 'w', 'quality': '3', 'quality_eyes': '3', 'quality_mouth': '3', 'quality_ears': '3', 'quality_hair': '3', 'quality_neck': '3', 'facial_hair': '0.0', 'notes': 'earrings hair', 'race_common': 'white', 'gender_common': 'woman'}",,,,,,,,,,,,,,,,,,,,,,,,,,,,,,,,,,,,,,,,,,,,,,62635863c6ba26583dc286d3,62635315c2c7645fef78b5e5,5adeb4e9f6b58c0001fa70aa
5357,626358ae06b19921fe99c589,Chrome,1.0,main_task,1.0,1.0,chris,"4/22/2022, 6:38:54 PM",pjd0b7zw3bepkgo6ol2s,0.0-20.0,pilot_prolific_no_filler,37,woman,109,0.0,white,00C,C,2255.0,"['../stimuli/version1_gray_lm/id109_00C_C.png', '../stimuli/version1_gray_lm/id013_50L_D.png', '../stimuli/version1_gray_lm/id013_25R_U.png']",64578.0,0.0,25.0,9.0,encoding,woman,013,"[1, 2]",white,"['50L', '25R']","['D', 'U']",,"{'muct_id': '401', 'lighting': 'w', 'race_guess': 'w', 'gender_guess': 'w', 'quality': '3', 'quality_eyes': '3', 'quality_mouth': '3', 'quality_ears': '3', 'quality_hair': '3', 'quality_neck': '3', 'facial_hair': '0.0', 'notes': 'mouth', 'race_common': 'white', 'gender_common': 'woman'}","{'muct_id': '14', 'lighting': 'q', 'race_guess': 'w', 'gender_guess': 'w', 'quality': '3', 'quality_eyes': '3', 'quality_mouth': '3', 'quality_ears': '3', 'quality_hair': '3', 'quality_neck': '3', 'facial_hair': '0.0', 'notes': None, 'race_common': 'white', 'gender_common': 'woman'}",,,,,,,,,,,,,,,,,,,,,,,,,,,,,,,,,,,,,,,,,,,,,,62635863c6ba26583dc286d3,62635315c2c7645fef78b5e5,5adeb4e9f6b58c0001fa70aa
5358,626358b006b19921fe99c58a,Chrome,2.0,main_task,0.0,3.0,chris,"4/22/2022, 6:38:56 PM",pjd0b7zw3bepkgo6ol2s,0.0-22.0,pilot_prolific_no_filler,39,woman,114,2.0,white,25R,C,1455.0,"['../stimuli/version1_gray_lm/id088_00C_U.png', '../stimuli/version1_gray_lm/id088_50L_D.png', '../stimuli/version1_gray_lm/id114_25R_C.png']",66674.0,0.0,27.0,10.0,encoding,woman,088,"[0, 1]",white,"['00C', '50L']","['U', 'D']",,"{'muct_id': '410', 'lighting': 'w', 'race_guess': 'w', 'gender_guess': 'w', 'quality': '3', 'quality_eyes': '3', 'quality_mouth': '3', 'quality_ears': '3', 'quality_hair': '3', 'quality_neck': '3', 'facial_hair': '0.0', 'notes': 'makeup mouth', 'race_common': 'white', 'gender_common': 'woman'}","{'muct_id': '252', 'lighting': 't', 'race_guess': 'w', 'gender_guess': 'w', 'quality': '3', 'quality_eyes': '3', 'quality_mouth': '3', 'quality_ears': '3', 'quality_hair': '3', 'quality_neck': '3', 'facial_hair': '0.0', 'notes': 'hair', 'race_common': 'white', 'gender_common': 'woman'}",,,,,,,,,,,,,,,,,,,,,,,,,,,,,,,,,,,,,,,,,,,,,,62635863c6ba26583dc286d3,62635315c2c7645fef78b5e5,5adeb4e9f6b58c0001fa70aa
5359,626358b306b19921fe99c58b,Chrome,1.0,main_task,1.0,1.0,chris,"4/22/2022, 6:38:59 PM",pjd0b7zw3bepkgo6ol2s,0.0-24.0,pilot_prolific_no_filler,37,man,113,0.0,black,25R,C,1999.0,"['../stimuli/version1_gray_lm/id113_25R_C.png', '../stimuli/version1_gray_lm/id004_25L_D.png', '../stimuli/version1_gray_lm/id004_00C_U.png']",69514.0,0.0,29.0,11.0,encoding,man,004,"[1, 2]",black,"['25L', '00C']","['D', 'U']",,"{'muct_id': '407', 'lighting': 'x', 'race_guess': 'u', 'gender_guess': 'm', 'quality': '3', 'quality_eyes': '3', 'quality_mouth': '3', 'quality_ears': '3', 'quality_hair': '3', 'quality_neck': '3', 'facial_hair': '3.0', 'notes': 'beard', 'race_common': 'black', 'gender_common': 'man'}","{'muct_id': '4', 'lighting': 'q', 'race_guess': 'b', 'gender_guess': 'm', 'quality': '3', 'quality_eyes': '3', 'quality_mouth': '3', 'quality_ears': '3', 'quality_hair': '3', 'quality_neck': '3', 'facial_hair': '2.0', 'notes': None, 'race_common': 'black', 'gender_common': 'man'}",,,,,,,,,,,,,,,,,,,,,,,,,,,,,,,,,,,,,,,,,,,,,,62635863c6ba26583dc286d3,62635315c2c7645fef78b5e5,5adeb4e9f6b58c0001fa70aa
5360,626358b606b19921fe99c58c,Chrome,1.0,main_task,1.0,1.0,chris,"4/22/2022, 6:39:02 PM",pjd0b7zw3bepkgo6ol2s,0.0-26.0,pilot_prolific_no_filler,37,man,117,0.0,black,25L,D,2559.0,"['../stimuli/version1_gray_lm/id117_25L_D.png', '../stimuli/version1_gray_lm/id056_25R_U.png', '../stimuli/version1_gray_lm/id056_00C_C.png']",72714.0,0.0,31.0,12.0,encoding,man,056,"[1, 2]",black,"['25R', '00C']","['U', 'C']",,"{'muct_id': '417', 'lighting': 'w', 'race_guess': 'b', 'gender_guess': 'm', 'quality': '3', 'quality_eyes': '3', 'quality_mouth': '3', 'quality_ears': '3', 'quality_hair': '3', 'quality_neck': '3', 'facial_hair': '1.0', 'notes': 'mouth', 'race_common': 'black', 'gender_common': 'man'}","{'muct_id': '82', 'lighting': 'q', 'race_guess': 'b', 'gender_guess': 'm', 'quality': '3', 'quality_eyes': '3', 'quality_mouth': '3', 'quality_ears': '3', 'quality_hair': '3', 'quality_neck': '3', 'facial_hair': '1.0', 'notes': None, 'race_common': 'black', 'gender_common': 'man'}",,,,,,,,,,,,,,,,,,,,,,,,,,,,,,,,,,,,,,,,,,,,,,62635863c6ba26583dc286d3,62635315c2c7645fef78b5e5,5adeb4e9f6b58c0001fa70aa
5361,626358b906b19921fe99c58d,Chrome,1.0,main_task,1.0,1.0,chris,"4/22/2022, 6:39:05 PM",pjd0b7zw3bepkgo6ol2s,0.0-28.0,pilot_prolific_no_filler,37,man,118,0.0,black,25R,D,1696.0,"['../stimuli/version1_gray_lm/id118_25R_D.png', '../stimuli/version1_gray_lm/id064_50L_C.png', '../stimuli/version1_gray_lm/id064_00C_U.png']",75698.0,0.0,33.0,13.0,encoding,man,064,"[1, 2]",black,"['50L', '00C']","['C', 'U']",,"{'muct_id': '419', 'lighting': 'x', 'race_guess': 'b', 'gender_guess': 'm', 'quality': '3', 'quality_eyes': '3', 'quality_mouth': '3', 'quality_ears': '3', 'quality_hair': '3', 'quality_neck': '3', 'facial_hair': '1.0', 'notes': None, 'race_common': 'black', 'gender_common': 'man'}","{'muct_id': '204', 'lighting': 't', 'race_guess': 'b', 'gender_guess': 'm', 'quality': '3', 'quality_eyes': '3', 'quality_mouth': '3', 'quality_ears': '3', 'quality_hair': '3', 'quality_neck': '3', 'facial_hair': '1.0', 'notes': None, 'race_common': 'black', 'gender_common': 'man'}",,,,,,,,,,,,,,,,,,,,,,,,,,,,,,,,,,,,,,,,,,,,,,62635863c6ba26583dc286d3,62635315c2c7645fef78b5e5,5adeb4e9f6b58c0001fa70aa
5362,626358bc06b19921fe99c58e,Chrome,1.0,main_task,1.0,1.0,chris,"4/22/2022, 6:39:08 PM",pjd0b7zw3bepkgo6ol2s,0.0-30.0,pilot_prolific_no_filler,37,man,119,0.0,black,00C,D,1768.0,"['../stimuli/version1_gray_lm/id119_00C_D.png', '../stimuli/version1_gray_lm/id083_25L_U.png', '../stimuli/version1_gray_lm/id083_50R_C.png']",78394.0,0.0,35.0,14.0,encoding,man,083,"[1, 2]",black,"['25L', '50R']","['U', 'C']",,"{'muct_id': '420', 'lighting': 'w', 'race_guess': 'b', 'gender_guess': 'm', 'quality': '3', 'quality_eyes': '3', 'quality_mouth': '3', 'quality_ears': '3', 'quality_hair': '3', 'quality_neck': '3', 'facial_hair': '0.0', 'notes': None, 'race_common': 'black', 'gender_common': 'man'}","{'muct_id': '243', 'lighting': 'v', 'race_guess': 'b', 'gender_guess': 'm', 'quality': '3', 'quality_eyes': '3', 'quality_mouth': '3', 'quality_ears': '3', 'quality_hair': '3', 'quality_neck': '3', 'facial_hair': '0.0', 'notes': None, 'race_common': 'black', 'gender_common': 'man'}",,,,,,,,,,,,,,,,,,,,,,,,,,,,,,,,,,,,,,,,,,,,,,62635863c6ba26583dc286d3,62635315c2c7645fef78b5e5,5adeb4e9f6b58c0001fa70aa
5363,626358be06b19921fe99c58f,Chrome,3.0,main_task,1.0,3.0,chris,"4/22/2022, 6:39:10 PM",pjd0b7zw3bepkgo6ol2s,0.0-32.0,pilot_prolific_no_filler,40,man,115,2.0,white,25R,C,1432.0,"['../stimuli/version1_gray_lm/id053_00C_D.png', '../stimuli/version1_gray_lm/id053_50L_U.png', '../stimuli/version1_gray_lm/id115_25R_C.png']",80514.0,0.0,37.0,15.0,encoding,man,053,"[0, 1]",white,"['00C', '50L']","['D', 'U']",,"{'muct_id': '412', 'lighting': 'x', 'race_guess': 'w', 'gender_guess': 'm', 'quality': '3', 'quality_eyes': '3', 'quality_mouth': '3', 'quality_ears': '3', 'quality_hair': '3', 'quality_neck': '3', 'facial_hair': '0.0', 'notes': None, 'race_common': 'white', 'gender_common': 'man'}","{'muct_id': '79', 'lighting': 'r', 'race_guess': 'i', 'gender_guess': 'm', 'quality': '2', 'quality_eyes': '2', 'quality_mouth': '3', 'quality_ears': '3', 'quality_hair': '2', 'quality_neck': '3', 'facial_hair': '0.0', 'notes': None, 'race_common': 'white', 'gender_common': 'man'}",,,,,,,,,,,,,,,,,,,,,,,,,,,,,,,,,,,,,,,,,,,,,,62635863c6ba26583dc286d3,62635315c2c7645fef78b5e5,5adeb4e9f6b58c0001fa70aa
5364,626358c106b19921fe99c590,Chrome,2.0,main_task,1.0,2.0,chris,"4/22/2022, 6:39:13 PM",pjd0b7zw3bepkgo6ol2s,0.0-34.0,pilot_prolific_no_filler,39,man,116,1.0,white,50R,U,2351.0,"['../stimuli/version1_gray_lm/id041_00C_D.png', '../stimuli/version1_gray_lm/id116_50R_U.png', '../stimuli/version1_gray_lm/id041_50L_C.png']",83570.0,0.0,39.0,16.0,encoding,man,041,"[0, 2]",white,"['00C', '50L']","['D', 'C']",,"{'muct_id': '414', 'lighting': 'w', 'race_guess': 'w', 'gender_guess': 'm', 'quality': '3', 'quality_eyes': '3', 'quality_mouth': '3', 'quality_ears': '3', 'quality_hair': '3', 'quality_neck': '3', 'facial_hair': '0.0', 'notes': None, 'race_common': 'white', 'gender_common': 'man'}","{'muct_id': '56', 'lighting': 'q', 'race_guess': 'w', 'gender_guess': 'm', 'quality': '3', 'quality_eyes': '3', 'quality_mouth': '3', 'quality_ears': '3', 'quality_hair': '3', 'quality_neck': '3', 'facial_hair': '0.0', 'notes': None, 'race_common': 'white', 'gender_common': 'man'}",,,,,,,,,,,,,,,,,,,,,,,,,,,,,,,,,,,,,,,,,,,,,,62635863c6ba26583dc286d3,62635315c2c7645fef78b5e5,5adeb4e9f6b58c0001fa70aa
5365,626358c406b19921fe99c591,Chrome,3.0,main_task,1.0,3.0,chris,"4/22/2022, 6:39:15 PM",pjd0b7zw3bepkgo6ol2s,0.0-36.0,pilot_prolific_no_filler,40,woman,123,2.0,white,25L,C,1295.0,"['../stimuli/version1_gray_lm/id054_25R_U.png', '../stimuli/version1_gray_lm/id054_00C_D.png', '../stimuli/version1_gray_lm/id123_25L_C.png']",85914.0,0.0,41.0,17.0,encoding,woman,054,"[0, 1]",white,"['25R', '00C']","['U', 'D']",,"{'muct_id': '76', 'lighting': 'q', 'race_guess': 'w', 'gender_guess': 'w', 'quality': '2', 'quality_eyes': '2', 'quality_mouth': '3', 'quality_ears': '2', 'quality_hair': '2', 'quality_neck': '3', 'facial_hair': '0.0', 'notes': 'hair', 'race_common': 'white', 'gender_common': 'woman'}","{'muct_id': '80', 'lighting': 's', 'race_guess': 'b', 'gender_guess': 'w', 'quality': '3', 'quality_eyes': '3', 'quality_mouth': '3', 'quality_ears': '3', 'quality_hair': '3', 'quality_neck': '3', 'facial_hair': '0.0', 'notes': 'earrings', 'race_common': 'white', 'gender_common': 'woman'}",,,,,,,,,,,,,,,,,,,,,,,,,,,,,,,,,,,,,,,,,,,,,,62635863c6ba26583dc286d3,62635315c2c7645fef78b5e5,5adeb4e9f6b58c0001fa70aa
5366,626358c606b19921fe99c592,Chrome,3.0,main_task,0.0,2.0,chris,"4/22/2022, 6:39:18 PM",pjd0b7zw3bepkgo6ol2s,0.0-38.0,pilot_prolific_no_filler,40,man,121,1.0,black,00C,D,1911.0,"['../stimuli/version1_gray_lm/id057_50R_C.png', '../stimuli/version1_gray_lm/id121_00C_D.png', '../stimuli/version1_gray_lm/id057_50L_U.png']",88650.0,0.0,43.0,18.0,encoding,man,057,"[0, 2]",black,"['50R', '50L']","['C', 'U']",,"{'muct_id': '423', 'lighting': 'w', 'race_guess': 'b', 'gender_guess': 'm', 'quality': '3', 'quality_eyes': '3', 'quality_mouth': '3', 'quality_ears': '3', 'quality_hair': '3', 'quality_neck': '3', 'facial_hair': '1.0', 'notes': None, 'race_common': 'black', 'gender_common': 'man'}","{'muct_id': '83', 'lighting': 'r', 'race_guess': 'b', 'gender_guess': 'm', 'quality': '3', 'quality_eyes': '3', 'quality_mouth': '3', 'quality_ears': '3', 'quality_hair': '3', 'quality_neck': '3', 'facial_hair': '3.0', 'notes': None, 'race_common': 'black', 'gender_common': 'man'}",,,,,,,,,,,,,,,,,,,,,,,,,,,,,,,,,,,,,,,,,,,,,,62635863c6ba26583dc286d3,62635315c2c7645fef78b5e5,5adeb4e9f6b58c0001fa70aa
5367,626358c806b19921fe99c593,Chrome,3.0,main_task,1.0,3.0,chris,"4/22/2022, 6:39:20 PM",pjd0b7zw3bepkgo6ol2s,0.0-40.0,pilot_prolific_no_filler,40,woman,120,2.0,black,25R,U,1272.0,"['../stimuli/version1_gray_lm/id020_50L_D.png', '../stimuli/version1_gray_lm/id020_00C_C.png', '../stimuli/version1_gray_lm/id120_25R_U.png']",90666.0,0.0,45.0,19.0,encoding,woman,020,"[0, 1]",black,"['50L', '00C']","['D', 'C']",,"{'muct_id': '421', 'lighting': 'x', 'race_guess': 'b', 'gender_guess': 'w', 'quality': '3', 'quality_eyes': '3', 'quality_mouth': '3', 'quality_ears': '3', 'quality_hair': '3', 'quality_neck': '3', 'facial_hair': '0.0', 'notes': None, 'race_common': 'black', 'gender_common': 'woman'}","{'muct_id': '24', 'lighting': 'q', 'race_guess': 'b', 'gender_guess': 'w', 'quality': '3', 'quality_eyes': '3', 'quality_mouth': '3', 'quality_ears': '3', 'quality_hair': '3', 'quality_neck': '3', 'facial_hair': '0.0', 'notes': None, 'race_common': 'black', 'gender_common': 'woman'}",,,,,,,,,,,,,,,,,,,,,,,,,,,,,,,,,,,,,,,,,,,,,,62635863c6ba26583dc286d3,62635315c2c7645fef78b5e5,5adeb4e9f6b58c0001fa70aa
5368,626358ca06b19921fe99c594,Chrome,3.0,main_task,1.0,3.0,chris,"4/22/2022, 6:39:22 PM",pjd0b7zw3bepkgo6ol2s,0.0-42.0,pilot_prolific_no_filler,40,woman,125,2.0,white,00C,C,1432.0,"['../stimuli/version1_gray_lm/id084_25R_U.png', '../stimuli/version1_gray_lm/id084_25L_D.png', '../stimuli/version1_gray_lm/id125_00C_C.png']",92722.0,0.0,47.0,20.0,encoding,woman,084,"[0, 1]",white,"['25R', '25L']","['U', 'D']",,"{'muct_id': '433', 'lighting': 'x', 'race_guess': 'w', 'gender_guess': 'w', 'quality': '3', 'quality_eyes': '3', 'quality_mouth': '3', 'quality_ears': '3', 'quality_hair': '3', 'quality_neck': '3', 'facial_hair': '0.0', 'notes': None, 'race_common': 'white', 'gender_common': 'woman'}","{'muct_id': '248', 'lighting': 'u', 'race_guess': 'w', 'gender_guess': 'w', 'quality': '3', 'quality_eyes': '3', 'quality_mouth': '3', 'quality_ears': '3', 'quality_hair': '3', 'quality_neck': '3', 'facial_hair': '0.0', 'notes': None, 'race_common': 'white', 'gender_common': 'woman'}",,,,,,,,,,,,,,,,,,,,,,,,,,,,,,,,,,,,,,,,,,,,,,62635863c6ba26583dc286d3,62635315c2c7645fef78b5e5,5adeb4e9f6b58c0001fa70aa
5369,626358cc06b19921fe99c595,Chrome,2.0,main_task,1.0,2.0,chris,"4/22/2022, 6:39:24 PM",pjd0b7zw3bepkgo6ol2s,0.0-44.0,pilot_prolific_no_filler,39,woman,141,1.0,white,25L,D,1423.0,"['../stimuli/version1_gray_lm/id003_00C_C.png', '../stimuli/version1_gray_lm/id141_25L_D.png', '../stimuli/version1_gray_lm/id003_25R_U.png']",94690.0,0.0,49.0,21.0,encoding,woman,003,"[0, 2]",white,"['00C', '25R']","['C', 'U']",,"{'muct_id': '77', 'lighting': 's', 'race_guess': 'w', 'gender_guess': 'w', 'quality': '3', 'quality_eyes': '3', 'quality_mouth': '3', 'quality_ears': '3', 'quality_hair': '3', 'quality_neck': '3', 'facial_hair': '0.0', 'notes': None, 'race_common': 'white', 'gender_common': 'woman'}","{'muct_id': '3', 'lighting': 's', 'race_guess': 'i', 'gender_guess': 'w', 'quality': '2', 'quality_eyes': '3', 'quality_mouth': '3', 'quality_ears': '3', 'quality_hair': '2', 'quality_neck': '3', 'facial_hair': '0.0', 'notes': 'hair', 'race_common': 'white', 'gender_common': 'woman'}",,,,,,,,,,,,,,,,,,,,,,,,,,,,,,,,,,,,,,,,,,,,,,62635863c6ba26583dc286d3,62635315c2c7645fef78b5e5,5adeb4e9f6b58c0001fa70aa
5370,626358ce06b19921fe99c596,Chrome,2.0,main_task,1.0,2.0,chris,"4/22/2022, 9:39:26 PM",v5ytae9f89h92kk5zw4d,0.0-2.0-0.0,pilot_prolific_no_filler,39,man,107,1.0,latinx,50L,D,6342.0,"['../stimuli/version1_gray_lm/id106_00C_C.png', '../stimuli/version1_gray_lm/id107_50L_D.png', '../stimuli/version1_gray_lm/id106_25R_U.png']",133808.0,0.0,2.0,1.0,encoding_practice,woman,106,"[0, 2]",latinx,"['00C', '25R']","['C', 'U']",,,,,,,,,,,,,,,,,,,,,,,,,,,,,,,,,,,,,,,,,,,,,,,,,6263583da53131fc082276ad,62635315c2c7645fef78b5e6,600765ae65acb0264f4143f9
5371,626358ce06b19921fe99c597,Chrome,1.0,main_task,1.0,1.0,chris,"4/22/2022, 6:39:26 PM",pjd0b7zw3bepkgo6ol2s,0.0-46.0,pilot_prolific_no_filler,37,man,122,0.0,black,25R,D,1455.0,"['../stimuli/version1_gray_lm/id122_25R_D.png', '../stimuli/version1_gray_lm/id086_00C_C.png', '../stimuli/version1_gray_lm/id086_50L_U.png']",96690.0,0.0,51.0,22.0,encoding,man,086,"[1, 2]",black,"['00C', '50L']","['C', 'U']",,"{'muct_id': '425', 'lighting': 'x', 'race_guess': 'b', 'gender_guess': 'm', 'quality': '3', 'quality_eyes': '3', 'quality_mouth': '3', 'quality_ears': '3', 'quality_hair': '3', 'quality_neck': '3', 'facial_hair': '2.0', 'notes': None, 'race_common': 'black', 'gender_common': 'man'}","{'muct_id': '250', 'lighting': 't', 'race_guess': 'b', 'gender_guess': 'm', 'quality': '3', 'quality_eyes': '3', 'quality_mouth': '3', 'quality_ears': '3', 'quality_hair': '3', 'quality_neck': '3', 'facial_hair': '1.0', 'notes': None, 'race_common': 'black', 'gender_common': 'man'}",,,,,,,,,,,,,,,,,,,,,,,,,,,,,,,,,,,,,,,,,,,,,,62635863c6ba26583dc286d3,62635315c2c7645fef78b5e5,5adeb4e9f6b58c0001fa70aa
5372,626358d106b19921fe99c598,Chrome,2.0,main_task,0.0,3.0,chris,"4/22/2022, 6:39:29 PM",pjd0b7zw3bepkgo6ol2s,0.0-48.0,pilot_prolific_no_filler,39,man,124,2.0,black,25R,U,2176.0,"['../stimuli/version1_gray_lm/id030_00C_C.png', '../stimuli/version1_gray_lm/id030_25L_D.png', '../stimuli/version1_gray_lm/id124_25R_U.png']",99466.0,0.0,53.0,23.0,encoding,man,030,"[0, 1]",black,"['00C', '25L']","['C', 'D']",,"{'muct_id': '431', 'lighting': 'x', 'race_guess': 'b', 'gender_guess': 'u', 'quality': '3', 'quality_eyes': '3', 'quality_mouth': '3', 'quality_ears': '3', 'quality_hair': '3', 'quality_neck': '3', 'facial_hair': '0.0', 'notes': 'mouth', 'race_common': 'black', 'gender_common': 'man'}","{'muct_id': '41', 'lighting': 'r', 'race_guess': 'b', 'gender_guess': 'm', 'quality': '3', 'quality_eyes': '3', 'quality_mouth': '3', 'quality_ears': '3', 'quality_hair': '3', 'quality_neck': '3', 'facial_hair': '0.0', 'notes': None, 'race_common': 'black', 'gender_common': 'man'}",,,,,,,,,,,,,,,,,,,,,,,,,,,,,,,,,,,,,,,,,,,,,,62635863c6ba26583dc286d3,62635315c2c7645fef78b5e5,5adeb4e9f6b58c0001fa70aa
5373,626358d306b19921fe99c599,Chrome,3.0,main_task,1.0,3.0,chris,"4/22/2022, 6:39:30 PM",pjd0b7zw3bepkgo6ol2s,0.0-50.0,pilot_prolific_no_filler,40,man,143,2.0,white,00C,D,1288.0,"['../stimuli/version1_gray_lm/id089_50R_C.png', '../stimuli/version1_gray_lm/id089_50L_U.png', '../stimuli/version1_gray_lm/id143_00C_D.png']",101282.0,0.0,55.0,24.0,encoding,man,089,"[0, 1]",white,"['50R', '50L']","['C', 'U']",,"{'muct_id': '90', 'lighting': 'q', 'race_guess': 'u', 'gender_guess': 'm', 'quality': '2', 'quality_eyes': '3', 'quality_mouth': '3', 'quality_ears': '2', 'quality_hair': '3', 'quality_neck': '3', 'facial_hair': '4.0', 'notes': 'beard', 'race_common': 'white', 'gender_common': 'man'}","{'muct_id': '255', 'lighting': 't', 'race_guess': 'w', 'gender_guess': 'm', 'quality': '3', 'quality_eyes': '3', 'quality_mouth': '3', 'quality_ears': '3', 'quality_hair': '3', 'quality_neck': '3', 'facial_hair': '2.0', 'notes': None, 'race_common': 'white', 'gender_common': 'man'}",,,,,,,,,,,,,,,,,,,,,,,,,,,,,,,,,,,,,,,,,,,,,,62635863c6ba26583dc286d3,62635315c2c7645fef78b5e5,5adeb4e9f6b58c0001fa70aa
5374,626358d506b19921fe99c59a,Chrome,1.0,main_task,1.0,1.0,chris,"4/22/2022, 6:39:33 PM",pjd0b7zw3bepkgo6ol2s,0.0-52.0,pilot_prolific_no_filler,37,woman,127,0.0,black,00C,D,1791.0,"['../stimuli/version1_gray_lm/id127_00C_D.png', '../stimuli/version1_gray_lm/id059_25R_U.png', '../stimuli/version1_gray_lm/id059_50L_C.png']",103578.0,0.0,57.0,25.0,encoding,woman,059,"[1, 2]",black,"['25R', '50L']","['U', 'C']",,"{'muct_id': '435', 'lighting': 'x', 'race_guess': 'b', 'gender_guess': 'w', 'quality': '3', 'quality_eyes': '3', 'quality_mouth': '3', 'quality_ears': '3', 'quality_hair': '3', 'quality_neck': '3', 'facial_hair': '0.0', 'notes': 'bandana', 'race_common': 'black', 'gender_common': 'woman'}","{'muct_id': '86', 'lighting': 'q', 'race_guess': 'b', 'gender_guess': 'w', 'quality': '3', 'quality_eyes': '3', 'quality_mouth': '3', 'quality_ears': '3', 'quality_hair': '3', 'quality_neck': '3', 'facial_hair': '0.0', 'notes': 'earrings', 'race_common': 'black', 'gender_common': 'woman'}",,,,,,,,,,,,,,,,,,,,,,,,,,,,,,,,,,,,,,,,,,,,,,62635863c6ba26583dc286d3,62635315c2c7645fef78b5e5,5adeb4e9f6b58c0001fa70aa
5375,626358d706b19921fe99c59b,Chrome,1.0,main_task,1.0,1.0,chris,"4/22/2022, 6:39:35 PM",pjd0b7zw3bepkgo6ol2s,0.0-54.0,pilot_prolific_no_filler,37,man,146,0.0,white,00C,C,1512.0,"['../stimuli/version1_gray_lm/id146_00C_C.png', '../stimuli/version1_gray_lm/id049_50R_U.png', '../stimuli/version1_gray_lm/id049_50L_D.png']",105570.0,0.0,59.0,26.0,encoding,man,049,"[1, 2]",white,"['50R', '50L']","['U', 'D']",,"{'muct_id': '254', 'lighting': 'v', 'race_guess': 'w', 'gender_guess': 'm', 'quality': '2', 'quality_eyes': '2', 'quality_mouth': '3', 'quality_ears': '3', 'quality_hair': '2', 'quality_neck': '3', 'facial_hair': '0.0', 'notes': 'hair', 'race_common': 'white', 'gender_common': 'man'}","{'muct_id': '66', 'lighting': 'r', 'race_guess': 'w', 'gender_guess': 'm', 'quality': '3', 'quality_eyes': '3', 'quality_mouth': '3', 'quality_ears': '3', 'quality_hair': '3', 'quality_neck': '3', 'facial_hair': '0.0', 'notes': None, 'race_common': 'white', 'gender_common': 'man'}",,,,,,,,,,,,,,,,,,,,,,,,,,,,,,,,,,,,,,,,,,,,,,62635863c6ba26583dc286d3,62635315c2c7645fef78b5e5,5adeb4e9f6b58c0001fa70aa
5376,626358d806b19921fe99c59c,Chrome,1.0,main_task,1.0,1.0,chris,"4/22/2022, 9:39:36 PM",v5ytae9f89h92kk5zw4d,0.0-2.1-0.1,pilot_prolific_no_filler,37,woman,108,0.0,latinx,00C,U,4171.0,"['../stimuli/version1_gray_lm/id108_00C_U.png', '../stimuli/version1_gray_lm/id107_50R_C.png', '../stimuli/version1_gray_lm/id107_25L_D.png']",143372.0,0.0,4.0,2.0,encoding_practice,man,107,"[1, 2]",latinx,"['50R', '25L']","['C', 'D']",,,,,,,,,,,,,,,,,,,,,,,,,,,,,,,,,,,,,,,,,,,,,,,,,6263583da53131fc082276ad,62635315c2c7645fef78b5e6,600765ae65acb0264f4143f9
5377,626358d906b19921fe99c59d,Chrome,3.0,main_task,0.0,1.0,chris,"4/22/2022, 6:39:37 PM",pjd0b7zw3bepkgo6ol2s,0.0-56.0,pilot_prolific_no_filler,40,woman,126,0.0,black,50R,C,1648.0,"['../stimuli/version1_gray_lm/id126_50R_C.png', '../stimuli/version1_gray_lm/id068_50L_D.png', '../stimuli/version1_gray_lm/id068_00C_U.png']",107626.0,0.0,61.0,27.0,encoding,woman,068,"[1, 2]",black,"['50L', '00C']","['D', 'U']",,"{'muct_id': '434', 'lighting': 'w', 'race_guess': 'b', 'gender_guess': 'w', 'quality': '3', 'quality_eyes': '3', 'quality_mouth': '3', 'quality_ears': '3', 'quality_hair': '3', 'quality_neck': '3', 'facial_hair': '0.0', 'notes': 'earrings', 'race_common': 'black', 'gender_common': 'woman'}","{'muct_id': '213', 'lighting': 'u', 'race_guess': 'b', 'gender_guess': 'w', 'quality': '3', 'quality_eyes': '3', 'quality_mouth': '3', 'quality_ears': '3', 'quality_hair': '3', 'quality_neck': '3', 'facial_hair': '0.0', 'notes': None, 'race_common': 'black', 'gender_common': 'woman'}",,,,,,,,,,,,,,,,,,,,,,,,,,,,,,,,,,,,,,,,,,,,,,62635863c6ba26583dc286d3,62635315c2c7645fef78b5e5,5adeb4e9f6b58c0001fa70aa
5378,626358dc06b19921fe99c59e,Chrome,3.0,main_task,1.0,3.0,chris,"4/22/2022, 6:39:39 PM",pjd0b7zw3bepkgo6ol2s,0.0-58.0,pilot_prolific_no_filler,40,man,145,2.0,white,00C,U,1880.0,"['../stimuli/version1_gray_lm/id043_25R_D.png', '../stimuli/version1_gray_lm/id043_25L_C.png', '../stimuli/version1_gray_lm/id145_00C_U.png']",109906.0,0.0,63.0,28.0,encoding,man,043,"[0, 1]",white,"['25R', '25L']","['D', 'C']",,"{'muct_id': '230', 'lighting': 'u', 'race_guess': 'w', 'gender_guess': 'm', 'quality': '3', 'quality_eyes': '3', 'quality_mouth': '3', 'quality_ears': '3', 'quality_hair': '3', 'quality_neck': '3', 'facial_hair': '0.0', 'notes': 'hair', 'race_common': 'white', 'gender_common': 'man'}","{'muct_id': '58', 'lighting': 'q', 'race_guess': 'w', 'gender_guess': 'm', 'quality': '3', 'quality_eyes': '3', 'quality_mouth': '3', 'quality_ears': '3', 'quality_hair': '3', 'quality_neck': '3', 'facial_hair': '0.0', 'notes': None, 'race_common': 'white', 'gender_common': 'man'}",,,,,,,,,,,,,,,,,,,,,,,,,,,,,,,,,,,,,,,,,,,,,,62635863c6ba26583dc286d3,62635315c2c7645fef78b5e5,5adeb4e9f6b58c0001fa70aa
5379,626358de06b19921fe99c59f,Chrome,2.0,main_task,1.0,2.0,chris,"4/22/2022, 6:39:41 PM",pjd0b7zw3bepkgo6ol2s,0.0-60.0,pilot_prolific_no_filler,39,man,149,1.0,white,25L,D,1504.0,"['../stimuli/version1_gray_lm/id061_00C_C.png', '../stimuli/version1_gray_lm/id149_25L_D.png', '../stimuli/version1_gray_lm/id061_50R_U.png']",111875.0,0.0,65.0,29.0,encoding,man,061,"[0, 2]",white,"['00C', '50R']","['C', 'U']",,"{'muct_id': '416', 'lighting': 'w', 'race_guess': 'w', 'gender_guess': 'm', 'quality': '3', 'quality_eyes': '3', 'quality_mouth': '3', 'quality_ears': '3', 'quality_hair': '3', 'quality_neck': '3', 'facial_hair': '2.0', 'notes': None, 'race_common': 'white', 'gender_common': 'man'}","{'muct_id': '89', 'lighting': 'r', 'race_guess': 'w', 'gender_guess': 'm', 'quality': '3', 'quality_eyes': '3', 'quality_mouth': '3', 'quality_ears': '3', 'quality_hair': '3', 'quality_neck': '3', 'facial_hair': '2.0', 'notes': None, 'race_common': 'white', 'gender_common': 'man'}",,,,,,,,,,,,,,,,,,,,,,,,,,,,,,,,,,,,,,,,,,,,,,62635863c6ba26583dc286d3,62635315c2c7645fef78b5e5,5adeb4e9f6b58c0001fa70aa
5380,626358e006b19921fe99c5a0,Chrome,1.0,main_task,1.0,1.0,chris,"4/22/2022, 9:39:44 PM",v5ytae9f89h92kk5zw4d,0.0-2.2-0.2,pilot_prolific_no_filler,37,woman,106,0.0,latinx,00C,C,3340.0,"['../stimuli/version1_gray_lm/id106_00C_C.png', '../stimuli/version1_gray_lm/id108_50L_D.png', '../stimuli/version1_gray_lm/id108_50R_U.png']",151301.0,0.0,6.0,3.0,encoding_practice,woman,108,"[1, 2]",latinx,"['50L', '50R']","['D', 'U']",1.0,,,,,,,,,,,,,,,,,,,,,,,,,,,,,,,,,,,,,,,,,,,,,,,,6263583da53131fc082276ad,62635315c2c7645fef78b5e6,600765ae65acb0264f4143f9
5381,626358e006b19921fe99c5a1,Chrome,1.0,main_task,1.0,1.0,chris,"4/22/2022, 6:39:44 PM",pjd0b7zw3bepkgo6ol2s,0.0-62.0,pilot_prolific_no_filler,37,man,128,0.0,black,00C,C,2256.0,"['../stimuli/version1_gray_lm/id128_00C_C.png', '../stimuli/version1_gray_lm/id091_50R_U.png', '../stimuli/version1_gray_lm/id091_50L_D.png']",114578.0,0.0,67.0,30.0,encoding,man,091,"[1, 2]",black,"['50R', '50L']","['U', 'D']",,"{'muct_id': '436', 'lighting': 'w', 'race_guess': 'b', 'gender_guess': 'm', 'quality': '3', 'quality_eyes': '3', 'quality_mouth': '3', 'quality_ears': '3', 'quality_hair': '3', 'quality_neck': '3', 'facial_hair': '3.0', 'notes': 'beard', 'race_common': 'black', 'gender_common': 'man'}","{'muct_id': '260', 'lighting': 't', 'race_guess': 'b', 'gender_guess': 'm', 'quality': '3', 'quality_eyes': '3', 'quality_mouth': '3', 'quality_ears': '3', 'quality_hair': '3', 'quality_neck': '3', 'facial_hair': '4.0', 'notes': 'beard', 'race_common': 'black', 'gender_common': 'man'}",,,,,,,,,,,,,,,,,,,,,,,,,,,,,,,,,,,,,,,,,,,,,,62635863c6ba26583dc286d3,62635315c2c7645fef78b5e5,5adeb4e9f6b58c0001fa70aa
5382,626358e206b19921fe99c5a2,Chrome,3.0,main_task,1.0,3.0,chris,"4/22/2022, 6:39:46 PM",pjd0b7zw3bepkgo6ol2s,0.0-64.0,pilot_prolific_no_filler,40,woman,148,2.0,white,50L,U,1512.0,"['../stimuli/version1_gray_lm/id018_00C_C.png', '../stimuli/version1_gray_lm/id018_50R_D.png', '../stimuli/version1_gray_lm/id148_50L_U.png']",116530.0,0.0,69.0,31.0,encoding,woman,018,"[0, 1]",white,"['00C', '50R']","['C', 'D']",,"{'muct_id': '415', 'lighting': 'w', 'race_guess': 'w', 'gender_guess': 'w', 'quality': '3', 'quality_eyes': '3', 'quality_mouth': '3', 'quality_ears': '3', 'quality_hair': '3', 'quality_neck': '3', 'facial_hair': '0.0', 'notes': None, 'race_common': 'white', 'gender_common': 'woman'}","{'muct_id': '21', 'lighting': 'q', 'race_guess': 'w', 'gender_guess': 'w', 'quality': '3', 'quality_eyes': '3', 'quality_mouth': '3', 'quality_ears': '3', 'quality_hair': '3', 'quality_neck': '3', 'facial_hair': '0.0', 'notes': None, 'race_common': 'white', 'gender_common': 'woman'}",,,,,,,,,,,,,,,,,,,,,,,,,,,,,,,,,,,,,,,,,,,,,,62635863c6ba26583dc286d3,62635315c2c7645fef78b5e5,5adeb4e9f6b58c0001fa70aa
5383,626358e606b19921fe99c5a3,Chrome,2.0,main_task,0.0,3.0,chris,"4/22/2022, 6:39:50 PM",pjd0b7zw3bepkgo6ol2s,0.0-66.0,pilot_prolific_no_filler,39,man,132,2.0,black,50L,U,3808.0,"['../stimuli/version1_gray_lm/id065_00C_C.png', '../stimuli/version1_gray_lm/id065_50R_D.png', '../stimuli/version1_gray_lm/id132_50L_U.png']",120698.0,0.0,71.0,32.0,encoding,man,065,"[0, 1]",black,"['00C', '50R']","['C', 'D']",,"{'muct_id': '450', 'lighting': 'w', 'race_guess': 'b', 'gender_guess': 'm', 'quality': '3', 'quality_eyes': '3', 'quality_mouth': '3', 'quality_ears': '3', 'quality_hair': '3', 'quality_neck': '3', 'facial_hair': '4.0', 'notes': 'mouth', 'race_common': 'black', 'gender_common': 'man'}","{'muct_id': '206', 'lighting': 't', 'race_guess': 'b', 'gender_guess': 'm', 'quality': '3', 'quality_eyes': '3', 'quality_mouth': '3', 'quality_ears': '3', 'quality_hair': '3', 'quality_neck': '3', 'facial_hair': '1.0', 'notes': None, 'race_common': 'black', 'gender_common': 'man'}",,,,,,,,,,,,,,,,,,,,,,,,,,,,,,,,,,,,,,,,,,,,,,62635863c6ba26583dc286d3,62635315c2c7645fef78b5e5,5adeb4e9f6b58c0001fa70aa
5384,626358e906b19921fe99c5a4,Chrome,2.0,main_task,1.0,2.0,chris,"4/22/2022, 9:39:54 PM",t99a55ysjufz4nt2e8o5,0.0-2.0-0.0,pilot_prolific_no_filler,39,woman,108,1.0,latinx,50R,C,5739.0,"['../stimuli/version1_gray_lm/id106_25L_U.png', '../stimuli/version1_gray_lm/id108_50R_C.png', '../stimuli/version1_gray_lm/id106_00C_D.png']",404214.0,0.0,2.0,1.0,encoding_practice,woman,106,"[0, 2]",latinx,"['25L', '00C']","['U', 'D']",,,,,,,,,,,,,,,,,,,,,,,,,,,,,,,,,,,,,,,,,,,,,,,,,6263574769771ec497af678a,62635315c2c7645fef78b5e6,5ff7a8b2c0a7854b6ce5c375
5385,626358ea06b19921fe99c5a5,Chrome,3.0,main_task,1.0,3.0,chris,"4/22/2022, 6:39:53 PM",pjd0b7zw3bepkgo6ol2s,0.0-68.0,pilot_prolific_no_filler,40,woman,133,2.0,black,00C,D,2856.0,"['../stimuli/version1_gray_lm/id005_50L_C.png', '../stimuli/version1_gray_lm/id005_25R_U.png', '../stimuli/version1_gray_lm/id133_00C_D.png']",123962.0,0.0,73.0,33.0,encoding,woman,005,"[0, 1]",black,"['50L', '25R']","['C', 'U']",,"{'muct_id': '601', 'lighting': 'y', 'race_guess': 'b', 'gender_guess': 'w', 'quality': '3', 'quality_eyes': '3', 'quality_mouth': '3', 'quality_ears': '3', 'quality_hair': '3', 'quality_neck': '3', 'facial_hair': '0.0', 'notes': 'mouth', 'race_common': 'black', 'gender_common': 'woman'}","{'muct_id': '5', 'lighting': 'q', 'race_guess': 'b', 'gender_guess': 'w', 'quality': '3', 'quality_eyes': '3', 'quality_mouth': '3', 'quality_ears': '3', 'quality_hair': '3', 'quality_neck': '3', 'facial_hair': '0.0', 'notes': 'hat', 'race_common': 'black', 'gender_common': 'woman'}",,,,,,,,,,,,,,,,,,,,,,,,,,,,,,,,,,,,,,,,,,,,,,62635863c6ba26583dc286d3,62635315c2c7645fef78b5e5,5adeb4e9f6b58c0001fa70aa
5386,626358ec06b19921fe99c5a6,Chrome,3.0,main_task,1.0,3.0,chris,"4/22/2022, 6:39:55 PM",pjd0b7zw3bepkgo6ol2s,0.0-70.0,pilot_prolific_no_filler,40,woman,151,2.0,white,50L,U,1528.0,"['../stimuli/version1_gray_lm/id007_00C_D.png', '../stimuli/version1_gray_lm/id007_25R_C.png', '../stimuli/version1_gray_lm/id151_50L_U.png']",126058.0,0.0,75.0,34.0,encoding,woman,007,"[0, 1]",white,"['00C', '25R']","['D', 'C']",,"{'muct_id': '444', 'lighting': 'w', 'race_guess': 'w', 'gender_guess': 'w', 'quality': '3', 'quality_eyes': '3', 'quality_mouth': '3', 'quality_ears': '3', 'quality_hair': '3', 'quality_neck': '3', 'facial_hair': '0.0', 'notes': None, 'race_common': 'white', 'gender_common': 'woman'}","{'muct_id': '7', 'lighting': 's', 'race_guess': 'u', 'gender_guess': 'w', 'quality': '3', 'quality_eyes': '3', 'quality_mouth': '3', 'quality_ears': '3', 'quality_hair': '3', 'quality_neck': '3', 'facial_hair': '0.0', 'notes': None, 'race_common': 'white', 'gender_common': 'woman'}",,,,,,,,,,,,,,,,,,,,,,,,,,,,,,,,,,,,,,,,,,,,,,62635863c6ba26583dc286d3,62635315c2c7645fef78b5e5,5adeb4e9f6b58c0001fa70aa
5387,626358ee06b19921fe99c5a7,Chrome,1.0,main_task,0.0,2.0,chris,"4/22/2022, 9:39:58 PM",v5ytae9f89h92kk5zw4d,0.0-4.0,pilot_prolific_no_filler,37,woman,101,1.0,white,25L,C,7939.0,"['../stimuli/version1_gray_lm/id013_25R_D.png', '../stimuli/version1_gray_lm/id101_25L_C.png', '../stimuli/version1_gray_lm/id013_00C_U.png']",165781.0,0.0,9.0,1.0,encoding,woman,013,"[0, 2]",white,"['25R', '00C']","['D', 'U']",,"{'muct_id': '281', 'lighting': 't', 'race_guess': 'w', 'gender_guess': 'w', 'quality': '3', 'quality_eyes': '3', 'quality_mouth': '3', 'quality_ears': '3', 'quality_hair': '3', 'quality_neck': '3', 'facial_hair': '0.0', 'notes': None, 'race_common': 'white', 'gender_common': 'woman'}","{'muct_id': '14', 'lighting': 'q', 'race_guess': 'w', 'gender_guess': 'w', 'quality': '3', 'quality_eyes': '3', 'quality_mouth': '3', 'quality_ears': '3', 'quality_hair': '3', 'quality_neck': '3', 'facial_hair': '0.0', 'notes': None, 'race_common': 'white', 'gender_common': 'woman'}",,,,,,,,,,,,,,,,,,,,,,,,,,,,,,,,,,,,,,,,,,,,,,6263583da53131fc082276ad,62635315c2c7645fef78b5e6,600765ae65acb0264f4143f9
5388,626358ee06b19921fe99c5a8,Chrome,1.0,main_task,1.0,1.0,chris,"4/22/2022, 6:39:58 PM",pjd0b7zw3bepkgo6ol2s,0.0-72.0,pilot_prolific_no_filler,37,woman,152,0.0,white,50L,D,2296.0,"['../stimuli/version1_gray_lm/id152_50L_D.png', '../stimuli/version1_gray_lm/id031_50R_C.png', '../stimuli/version1_gray_lm/id031_00C_U.png']",128738.0,0.0,77.0,35.0,encoding,woman,031,"[1, 2]",white,"['50R', '00C']","['C', 'U']",,"{'muct_id': '446', 'lighting': 'w', 'race_guess': 'w', 'gender_guess': 'w', 'quality': '3', 'quality_eyes': '3', 'quality_mouth': '3', 'quality_ears': '3', 'quality_hair': '3', 'quality_neck': '3', 'facial_hair': '0.0', 'notes': None, 'race_common': 'white', 'gender_common': 'woman'}","{'muct_id': '42', 'lighting': 'q', 'race_guess': 'u', 'gender_guess': 'w', 'quality': '2', 'quality_eyes': '3', 'quality_mouth': '3', 'quality_ears': '2', 'quality_hair': '3', 'quality_neck': '3', 'facial_hair': '0.0', 'notes': 'mouth', 'race_common': 'white', 'gender_common': 'woman'}",,,,,,,,,,,,,,,,,,,,,,,,,,,,,,,,,,,,,,,,,,,,,,62635863c6ba26583dc286d3,62635315c2c7645fef78b5e5,5adeb4e9f6b58c0001fa70aa
5389,626358ef06b19921fe99c5a9,Chrome,3.0,main_task,1.0,3.0,chris,"4/22/2022, 9:40:00 PM",t99a55ysjufz4nt2e8o5,0.0-2.1-0.1,pilot_prolific_no_filler,40,woman,106,2.0,latinx,50L,D,3821.0,"['../stimuli/version1_gray_lm/id108_50R_C.png', '../stimuli/version1_gray_lm/id108_00C_U.png', '../stimuli/version1_gray_lm/id106_50L_D.png']",410298.0,0.0,4.0,2.0,encoding_practice,woman,108,"[0, 1]",latinx,"['50R', '00C']","['C', 'U']",,,,,,,,,,,,,,,,,,,,,,,,,,,,,,,,,,,,,,,,,,,,,,,,,6263574769771ec497af678a,62635315c2c7645fef78b5e6,5ff7a8b2c0a7854b6ce5c375
5390,626358f106b19921fe99c5aa,Chrome,2.0,main_task,1.0,2.0,chris,"4/22/2022, 6:40:00 PM",pjd0b7zw3bepkgo6ol2s,0.0-74.0,pilot_prolific_no_filler,39,woman,136,1.0,black,00C,D,1800.0,"['../stimuli/version1_gray_lm/id144_50R_U.png', '../stimuli/version1_gray_lm/id136_00C_D.png', '../stimuli/version1_gray_lm/id144_50L_C.png']",131018.0,0.0,79.0,36.0,encoding,woman,144,"[0, 2]",black,"['50R', '50L']","['U', 'C']",,"{'muct_id': '616', 'lighting': 'y', 'race_guess': 'b', 'gender_guess': 'w', 'quality': '3', 'quality_eyes': '3', 'quality_mouth': '3', 'quality_ears': '3', 'quality_hair': '3', 'quality_neck': '3', 'facial_hair': '0.0', 'notes': 'earrings', 'race_common': 'black', 'gender_common': 'woman'}","{'muct_id': '214', 'lighting': 'u', 'race_guess': 'b', 'gender_guess': 'w', 'quality': '2', 'quality_eyes': '2', 'quality_mouth': '3', 'quality_ears': '3', 'quality_hair': '3', 'quality_neck': '3', 'facial_hair': '0.0', 'notes': None, 'race_common': 'black', 'gender_common': 'woman'}",,,,,,,,,,,,,,,,,,,,,,,,,,,,,,,,,,,,,,,,,,,,,,62635863c6ba26583dc286d3,62635315c2c7645fef78b5e5,5adeb4e9f6b58c0001fa70aa
5391,626358f406b19921fe99c5ab,Chrome,3.0,main_task,0.0,2.0,chris,"4/22/2022, 6:40:04 PM",pjd0b7zw3bepkgo6ol2s,0.0-76.0,pilot_prolific_no_filler,40,woman,155,1.0,white,25R,U,2904.0,"['../stimuli/version1_gray_lm/id076_00C_D.png', '../stimuli/version1_gray_lm/id155_25R_U.png', '../stimuli/version1_gray_lm/id076_50L_C.png']",134442.0,0.0,81.0,37.0,encoding,woman,076,"[0, 2]",white,"['00C', '50L']","['D', 'C']",,"{'muct_id': '615', 'lighting': 'z', 'race_guess': 'w', 'gender_guess': 'w', 'quality': '3', 'quality_eyes': '3', 'quality_mouth': '3', 'quality_ears': '3', 'quality_hair': '3', 'quality_neck': '3', 'facial_hair': '0.0', 'notes': 'earrings', 'race_common': 'white', 'gender_common': 'woman'}","{'muct_id': '233', 'lighting': 'u', 'race_guess': 'w', 'gender_guess': 'w', 'quality': '3', 'quality_eyes': '3', 'quality_mouth': '3', 'quality_ears': '3', 'quality_hair': '3', 'quality_neck': '3', 'facial_hair': '0.0', 'notes': 'earrings', 'race_common': 'white', 'gender_common': 'woman'}",,,,,,,,,,,,,,,,,,,,,,,,,,,,,,,,,,,,,,,,,,,,,,62635863c6ba26583dc286d3,62635315c2c7645fef78b5e5,5adeb4e9f6b58c0001fa70aa
5392,626358f606b19921fe99c5ac,Chrome,2.0,main_task,1.0,2.0,chris,"4/22/2022, 9:40:05 PM",v5ytae9f89h92kk5zw4d,0.0-6.0,pilot_prolific_no_filler,39,man,100,1.0,white,00C,C,4938.0,"['../stimuli/version1_gray_lm/id053_25R_D.png', '../stimuli/version1_gray_lm/id100_00C_C.png', '../stimuli/version1_gray_lm/id053_25L_U.png']",173195.0,0.0,11.0,2.0,encoding,man,053,"[0, 2]",white,"['25R', '25L']","['D', 'U']",,"{'muct_id': '280', 'lighting': 'u', 'race_guess': 'w', 'gender_guess': 'm', 'quality': '3', 'quality_eyes': '3', 'quality_mouth': '3', 'quality_ears': '3', 'quality_hair': '3', 'quality_neck': '3', 'facial_hair': '0.0', 'notes': None, 'race_common': 'white', 'gender_common': 'man'}","{'muct_id': '79', 'lighting': 'r', 'race_guess': 'i', 'gender_guess': 'm', 'quality': '2', 'quality_eyes': '2', 'quality_mouth': '3', 'quality_ears': '3', 'quality_hair': '2', 'quality_neck': '3', 'facial_hair': '0.0', 'notes': None, 'race_common': 'white', 'gender_common': 'man'}",,,,,,,,,,,,,,,,,,,,,,,,,,,,,,,,,,,,,,,,,,,,,,6263583da53131fc082276ad,62635315c2c7645fef78b5e6,600765ae65acb0264f4143f9
5393,626358f606b19921fe99c5ad,Chrome,3.0,main_task,1.0,3.0,chris,"4/22/2022, 6:40:05 PM",pjd0b7zw3bepkgo6ol2s,0.0-78.0,pilot_prolific_no_filler,40,woman,153,2.0,white,50L,U,1168.0,"['../stimuli/version1_gray_lm/id051_25R_C.png', '../stimuli/version1_gray_lm/id051_00C_D.png', '../stimuli/version1_gray_lm/id153_50L_U.png']",136210.0,0.0,83.0,38.0,encoding,woman,051,"[0, 1]",white,"['25R', '00C']","['C', 'D']",,"{'muct_id': '437', 'lighting': 'x', 'race_guess': 'w', 'gender_guess': 'w', 'quality': '3', 'quality_eyes': '3', 'quality_mouth': '3', 'quality_ears': '3', 'quality_hair': '3', 'quality_neck': '3', 'facial_hair': '0.0', 'notes': 'hair', 'race_common': 'white', 'gender_common': 'woman'}","{'muct_id': '74', 'lighting': 'q', 'race_guess': 'w', 'gender_guess': 'w', 'quality': '3', 'quality_eyes': '3', 'quality_mouth': '3', 'quality_ears': '3', 'quality_hair': '3', 'quality_neck': '3', 'facial_hair': '0.0', 'notes': None, 'race_common': 'white', 'gender_common': 'woman'}",,,,,,,,,,,,,,,,,,,,,,,,,,,,,,,,,,,,,,,,,,,,,,62635863c6ba26583dc286d3,62635315c2c7645fef78b5e5,5adeb4e9f6b58c0001fa70aa
5394,626358f606b19921fe99c5ae,Chrome,2.0,main_task,1.0,2.0,chris,"4/22/2022, 9:40:08 PM",t99a55ysjufz4nt2e8o5,0.0-2.2-0.2,pilot_prolific_no_filler,39,woman,106,1.0,latinx,50R,D,5938.0,"['../stimuli/version1_gray_lm/id107_00C_U.png', '../stimuli/version1_gray_lm/id106_50R_D.png', '../stimuli/version1_gray_lm/id107_50L_C.png']",417880.0,0.0,6.0,3.0,encoding_practice,man,107,"[0, 2]",latinx,"['00C', '50L']","['U', 'C']",1.0,,,,,,,,,,,,,,,,,,,,,,,,,,,,,,,,,,,,,,,,,,,,,,,,6263574769771ec497af678a,62635315c2c7645fef78b5e6,5ff7a8b2c0a7854b6ce5c375
5395,626358f806b19921fe99c5af,Chrome,2.0,main_task,0.0,3.0,chris,"4/22/2022, 6:40:07 PM",pjd0b7zw3bepkgo6ol2s,0.0-80.0,pilot_prolific_no_filler,39,man,139,2.0,black,00C,U,1615.0,"['../stimuli/version1_gray_lm/id021_25L_D.png', '../stimuli/version1_gray_lm/id021_25R_C.png', '../stimuli/version1_gray_lm/id139_00C_U.png']",138170.0,0.0,85.0,39.0,encoding,man,021,"[0, 1]",black,"['25L', '25R']","['D', 'C']",,"{'muct_id': '623', 'lighting': 'y', 'race_guess': 'b', 'gender_guess': 'm', 'quality': '3', 'quality_eyes': '3', 'quality_mouth': '3', 'quality_ears': '3', 'quality_hair': '3', 'quality_neck': '3', 'facial_hair': '1.0', 'notes': 'mouth', 'race_common': 'black', 'gender_common': 'man'}","{'muct_id': '25', 'lighting': 'r', 'race_guess': 'b', 'gender_guess': 'm', 'quality': '3', 'quality_eyes': '3', 'quality_mouth': '3', 'quality_ears': '3', 'quality_hair': '3', 'quality_neck': '3', 'facial_hair': '2.0', 'notes': None, 'race_common': 'black', 'gender_common': 'man'}",,,,,,,,,,,,,,,,,,,,,,,,,,,,,,,,,,,,,,,,,,,,,,62635863c6ba26583dc286d3,62635315c2c7645fef78b5e5,5adeb4e9f6b58c0001fa70aa
5396,626358fa06b19921fe99c5b0,Chrome,3.0,main_task,1.0,3.0,chris,"4/22/2022, 6:40:09 PM",pjd0b7zw3bepkgo6ol2s,0.0-82.0,pilot_prolific_no_filler,40,man,137,2.0,black,00C,C,1567.0,"['../stimuli/version1_gray_lm/id036_25R_U.png', '../stimuli/version1_gray_lm/id036_25L_D.png', '../stimuli/version1_gray_lm/id137_00C_C.png']",140178.0,0.0,87.0,40.0,encoding,man,036,"[0, 1]",black,"['25R', '25L']","['U', 'D']",,"{'muct_id': '617', 'lighting': 'y', 'race_guess': 'b', 'gender_guess': 'w', 'quality': '3', 'quality_eyes': '3', 'quality_mouth': '3', 'quality_ears': '3', 'quality_hair': '3', 'quality_neck': '3', 'facial_hair': '0.0', 'notes': 'mouth', 'race_common': 'black', 'gender_common': 'man'}","{'muct_id': '47', 'lighting': 'q', 'race_guess': 'b', 'gender_guess': 'u', 'quality': '3', 'quality_eyes': '3', 'quality_mouth': '3', 'quality_ears': '3', 'quality_hair': '3', 'quality_neck': '3', 'facial_hair': '0.0', 'notes': None, 'race_common': 'black', 'gender_common': 'man'}",,,,,,,,,,,,,,,,,,,,,,,,,,,,,,,,,,,,,,,,,,,,,,62635863c6ba26583dc286d3,62635315c2c7645fef78b5e5,5adeb4e9f6b58c0001fa70aa
5397,626358fc06b19921fe99c5b1,Chrome,3.0,main_task,1.0,3.0,chris,"4/22/2022, 9:40:13 PM",vhyawytblvotmo4hjf56,0.0-2.0-0.0,pilot_prolific_no_filler,40,woman,106,2.0,latinx,25L,C,2001.0,"['../stimuli/version1_gray_lm/id108_25R_U.png', '../stimuli/version1_gray_lm/id108_00C_D.png', '../stimuli/version1_gray_lm/id106_25L_C.png']",65678.0,0.0,2.0,1.0,encoding_practice,woman,108,"[0, 1]",latinx,"['25R', '00C']","['U', 'D']",,,,,,,,,,,,,,,,,,,,,,,,,,,,,,,,,,,,,,,,,,,,,,,,,62635851a92cc565e302a7ee,62635315c2c7645fef78b5e6,5d3dfb9322ed840001722278
5398,626358fc06b19921fe99c5b2,Chrome,3.0,main_task,1.0,3.0,chris,"4/22/2022, 9:40:12 PM",v5ytae9f89h92kk5zw4d,0.0-8.0,pilot_prolific_no_filler,40,man,105,2.0,black,50R,D,5226.0,"['../stimuli/version1_gray_lm/id056_50L_C.png', '../stimuli/version1_gray_lm/id056_00C_U.png', '../stimuli/version1_gray_lm/id105_50R_D.png']",179911.0,0.0,13.0,3.0,encoding,man,056,"[0, 1]",black,"['50L', '00C']","['C', 'U']",,"{'muct_id': '290', 'lighting': 't', 'race_guess': 'b', 'gender_guess': 'm', 'quality': '3', 'quality_eyes': '3', 'quality_mouth': '3', 'quality_ears': '3', 'quality_hair': '3', 'quality_neck': '3', 'facial_hair': '2.0', 'notes': None, 'race_common': 'black', 'gender_common': 'man'}","{'muct_id': '82', 'lighting': 'q', 'race_guess': 'b', 'gender_guess': 'm', 'quality': '3', 'quality_eyes': '3', 'quality_mouth': '3', 'quality_ears': '3', 'quality_hair': '3', 'quality_neck': '3', 'facial_hair': '1.0', 'notes': None, 'race_common': 'black', 'gender_common': 'man'}",,,,,,,,,,,,,,,,,,,,,,,,,,,,,,,,,,,,,,,,,,,,,,6263583da53131fc082276ad,62635315c2c7645fef78b5e6,600765ae65acb0264f4143f9
5399,6263590006b19921fe99c5b3,Chrome,,main_task,,,chris,"4/22/2022, 6:40:15 PM",,0.0-84.0,pilot_prolific_no_filler,,,,,,,,5393.600000008941,"<p style='font-size: 150%'><b>You have finished Part 1!</b></p><p>On this section, you averaged <b>75% accuracy</b>.</p><p>At this rate, you won't earn any bonus above the base rate.<br>Take your time on the next parts to make sure you can make a bonus!</p><p>Click 'Next' to continue to Part 2.</p>",145900.0,,89.0,,bonus_update,,,,,,,,,,0,encoding,0.0,,,,,,,,,,,,,,,,,,,,,,,,,,,,,,,,,,,,,,,,,,,62635863c6ba26583dc286d3,62635315c2c7645fef78b5e5,5adeb4e9f6b58c0001fa70aa
5400,6263590106b19921fe99c5b4,Chrome,1.0,main_task,1.0,1.0,chris,"4/22/2022, 9:40:17 PM",vhyawytblvotmo4hjf56,0.0-2.1-0.1,pilot_prolific_no_filler,37,woman,108,0.0,latinx,50R,D,2051.0,"['../stimuli/version1_gray_lm/id108_50R_D.png', '../stimuli/version1_gray_lm/id107_25L_U.png', '../stimuli/version1_gray_lm/id107_00C_C.png']",70012.0,0.0,4.0,2.0,encoding_practice,man,107,"[1, 2]",latinx,"['25L', '00C']","['U', 'C']",,,,,,,,,,,,,,,,,,,,,,,,,,,,,,,,,,,,,,,,,,,,,,,,,62635851a92cc565e302a7ee,62635315c2c7645fef78b5e6,5d3dfb9322ed840001722278
5401,6263590406b19921fe99c5b5,Chrome,1.0,main_task,1.0,1.0,chris,"4/22/2022, 9:40:21 PM",vhyawytblvotmo4hjf56,0.0-2.2-0.2,pilot_prolific_no_filler,37,woman,106,0.0,latinx,25R,D,1760.0,"['../stimuli/version1_gray_lm/id106_25R_D.png', '../stimuli/version1_gray_lm/id107_25L_U.png', '../stimuli/version1_gray_lm/id107_00C_C.png']",73175.0,0.0,6.0,3.0,encoding_practice,man,107,"[1, 2]",latinx,"['25L', '00C']","['U', 'C']",1.0,,,,,,,,,,,,,,,,,,,,,,,,,,,,,,,,,,,,,,,,,,,,,,,,62635851a92cc565e302a7ee,62635315c2c7645fef78b5e6,5d3dfb9322ed840001722278
5402,6263590406b19921fe99c5b6,Chrome,3.0,main_task,1.0,3.0,chris,"4/22/2022, 9:40:21 PM",t99a55ysjufz4nt2e8o5,0.0-4.0,pilot_prolific_no_filler,40,woman,103,2.0,black,00C,C,4295.0,"['../stimuli/version1_gray_lm/id077_50R_U.png', '../stimuli/version1_gray_lm/id077_25L_D.png', '../stimuli/version1_gray_lm/id103_00C_C.png']",431727.0,0.0,9.0,1.0,encoding,woman,077,"[0, 1]",black,"['50R', '25L']","['U', 'D']",,"{'muct_id': '285', 'lighting': 'v', 'race_guess': 'b', 'gender_guess': 'w', 'quality': '3', 'quality_eyes': '3', 'quality_mouth': '3', 'quality_ears': '3', 'quality_hair': '3', 'quality_neck': '3', 'facial_hair': '0.0', 'notes': 'earrings', 'race_common': 'black', 'gender_common': 'woman'}","{'muct_id': '235', 'lighting': 'u', 'race_guess': 'b', 'gender_guess': 'w', 'quality': '3', 'quality_eyes': '3', 'quality_mouth': '3', 'quality_ears': '3', 'quality_hair': '3', 'quality_neck': '3', 'facial_hair': '0.0', 'notes': 'earrings', 'race_common': 'black', 'gender_common': 'woman'}",,,,,,,,,,,,,,,,,,,,,,,,,,,,,,,,,,,,,,,,,,,,,,6263574769771ec497af678a,62635315c2c7645fef78b5e6,5ff7a8b2c0a7854b6ce5c375
5403,6263590806b19921fe99c5b7,Chrome,,main_task,0.0,1.0,chris,"4/22/2022, 9:40:24 PM",v5ytae9f89h92kk5zw4d,0.0-10.0,pilot_prolific_no_filler,,woman,103,0.0,black,00C,U,0.0,"['../stimuli/version1_gray_lm/id103_00C_U.png', '../stimuli/version1_gray_lm/id060_50R_C.png', '../stimuli/version1_gray_lm/id060_50L_D.png']",191482.0,1.0,15.0,4.0,encoding,woman,060,"[1, 2]",black,"['50R', '50L']","['C', 'D']",,"{'muct_id': '285', 'lighting': 'v', 'race_guess': 'b', 'gender_guess': 'w', 'quality': '3', 'quality_eyes': '3', 'quality_mouth': '3', 'quality_ears': '3', 'quality_hair': '3', 'quality_neck': '3', 'facial_hair': '0.0', 'notes': 'earrings', 'race_common': 'black', 'gender_common': 'woman'}","{'muct_id': '88', 'lighting': 'q', 'race_guess': 'b', 'gender_guess': 'w', 'quality': '3', 'quality_eyes': '3', 'quality_mouth': '3', 'quality_ears': '3', 'quality_hair': '3', 'quality_neck': '3', 'facial_hair': '0.0', 'notes': 'earrings', 'race_common': 'black', 'gender_common': 'woman'}",,,,,,,,,,,,,,,,,,,,,,,,,,,,,,,,,,,,,,,,,,,,,,6263583da53131fc082276ad,62635315c2c7645fef78b5e6,600765ae65acb0264f4143f9
5404,6263590a06b19921fe99c5b8,Chrome,2.0,main_task,1.0,2.0,chris,"4/22/2022, 9:40:27 PM",t99a55ysjufz4nt2e8o5,0.0-6.0,pilot_prolific_no_filler,39,man,100,1.0,white,50R,D,4013.0,"['../stimuli/version1_gray_lm/id041_50L_C.png', '../stimuli/version1_gray_lm/id100_50R_D.png', '../stimuli/version1_gray_lm/id041_00C_U.png']",437376.0,0.0,11.0,2.0,encoding,man,041,"[0, 2]",white,"['50L', '00C']","['C', 'U']",,"{'muct_id': '280', 'lighting': 'u', 'race_guess': 'w', 'gender_guess': 'm', 'quality': '3', 'quality_eyes': '3', 'quality_mouth': '3', 'quality_ears': '3', 'quality_hair': '3', 'quality_neck': '3', 'facial_hair': '0.0', 'notes': None, 'race_common': 'white', 'gender_common': 'man'}","{'muct_id': '56', 'lighting': 'q', 'race_guess': 'w', 'gender_guess': 'm', 'quality': '3', 'quality_eyes': '3', 'quality_mouth': '3', 'quality_ears': '3', 'quality_hair': '3', 'quality_neck': '3', 'facial_hair': '0.0', 'notes': None, 'race_common': 'white', 'gender_common': 'man'}",,,,,,,,,,,,,,,,,,,,,,,,,,,,,,,,,,,,,,,,,,,,,,6263574769771ec497af678a,62635315c2c7645fef78b5e6,5ff7a8b2c0a7854b6ce5c375
5405,6263590c06b19921fe99c5b9,Chrome,1.0,main_task,1.0,1.0,chris,"4/22/2022, 9:40:29 PM",vhyawytblvotmo4hjf56,0.0-4.0,pilot_prolific_no_filler,37,woman,101,0.0,white,25R,C,3535.0,"['../stimuli/version1_gray_lm/id101_25R_C.png', '../stimuli/version1_gray_lm/id017_00C_D.png', '../stimuli/version1_gray_lm/id017_50L_U.png']",81908.0,0.0,9.0,1.0,encoding,woman,017,"[1, 2]",white,"['00C', '50L']","['D', 'U']",,"{'muct_id': '281', 'lighting': 't', 'race_guess': 'w', 'gender_guess': 'w', 'quality': '3', 'quality_eyes': '3', 'quality_mouth': '3', 'quality_ears': '3', 'quality_hair': '3', 'quality_neck': '3', 'facial_hair': '0.0', 'notes': None, 'race_common': 'white', 'gender_common': 'woman'}","{'muct_id': '19', 'lighting': 'r', 'race_guess': 'w', 'gender_guess': 'w', 'quality': '3', 'quality_eyes': '3', 'quality_mouth': '3', 'quality_ears': '3', 'quality_hair': '3', 'quality_neck': '3', 'facial_hair': '0.0', 'notes': None, 'race_common': 'white', 'gender_common': 'woman'}",,,,,,,,,,,,,,,,,,,,,,,,,,,,,,,,,,,,,,,,,,,,,,62635851a92cc565e302a7ee,62635315c2c7645fef78b5e6,5d3dfb9322ed840001722278
5406,6263590f06b19921fe99c5ba,Chrome,3.0,main_task,1.0,3.0,chris,"4/22/2022, 9:40:32 PM",t99a55ysjufz4nt2e8o5,0.0-8.0,pilot_prolific_no_filler,40,woman,101,2.0,white,25R,U,3133.0,"['../stimuli/version1_gray_lm/id029_00C_D.png', '../stimuli/version1_gray_lm/id029_25L_C.png', '../stimuli/version1_gray_lm/id101_25R_U.png']",441984.0,0.0,13.0,3.0,encoding,woman,029,"[0, 1]",white,"['00C', '25L']","['D', 'C']",,"{'muct_id': '281', 'lighting': 't', 'race_guess': 'w', 'gender_guess': 'w', 'quality': '3', 'quality_eyes': '3', 'quality_mouth': '3', 'quality_ears': '3', 'quality_hair': '3', 'quality_neck': '3', 'facial_hair': '0.0', 'notes': None, 'race_common': 'white', 'gender_common': 'woman'}","{'muct_id': '39', 'lighting': 'r', 'race_guess': 'w', 'gender_guess': 'w', 'quality': '3', 'quality_eyes': '3', 'quality_mouth': '3', 'quality_ears': '3', 'quality_hair': '3', 'quality_neck': '3', 'facial_hair': '0.0', 'notes': 'earrings hair', 'race_common': 'white', 'gender_common': 'woman'}",,,,,,,,,,,,,,,,,,,,,,,,,,,,,,,,,,,,,,,,,,,,,,6263574769771ec497af678a,62635315c2c7645fef78b5e6,5ff7a8b2c0a7854b6ce5c375
5407,6263591006b19921fe99c5bb,Chrome,1.0,main_task,1.0,1.0,chris,"4/22/2022, 9:40:33 PM",vhyawytblvotmo4hjf56,0.0-6.0,pilot_prolific_no_filler,37,man,105,0.0,black,50L,D,2154.0,"['../stimuli/version1_gray_lm/id105_50L_D.png', '../stimuli/version1_gray_lm/id057_50R_U.png', '../stimuli/version1_gray_lm/id057_00C_C.png']",85367.0,0.0,11.0,2.0,encoding,man,057,"[1, 2]",black,"['50R', '00C']","['U', 'C']",,"{'muct_id': '290', 'lighting': 't', 'race_guess': 'b', 'gender_guess': 'm', 'quality': '3', 'quality_eyes': '3', 'quality_mouth': '3', 'quality_ears': '3', 'quality_hair': '3', 'quality_neck': '3', 'facial_hair': '2.0', 'notes': None, 'race_common': 'black', 'gender_common': 'man'}","{'muct_id': '83', 'lighting': 'r', 'race_guess': 'b', 'gender_guess': 'm', 'quality': '3', 'quality_eyes': '3', 'quality_mouth': '3', 'quality_ears': '3', 'quality_hair': '3', 'quality_neck': '3', 'facial_hair': '3.0', 'notes': None, 'race_common': 'black', 'gender_common': 'man'}",,,,,,,,,,,,,,,,,,,,,,,,,,,,,,,,,,,,,,,,,,,,,,62635851a92cc565e302a7ee,62635315c2c7645fef78b5e6,5d3dfb9322ed840001722278
5408,6263591206b19921fe99c5bc,Chrome,1.0,main_task,1.0,1.0,chris,"4/22/2022, 9:40:34 PM",v5ytae9f89h92kk5zw4d,0.0-12.0,pilot_prolific_no_filler,37,man,112,0.0,black,50R,C,8400.0,"['../stimuli/version1_gray_lm/id112_50R_C.png', '../stimuli/version1_gray_lm/id028_00C_U.png', '../stimuli/version1_gray_lm/id028_50L_D.png']",201915.0,0.0,17.0,5.0,encoding,man,028,"[1, 2]",black,"['00C', '50L']","['U', 'D']",,"{'muct_id': '406', 'lighting': 'w', 'race_guess': 'b', 'gender_guess': 'm', 'quality': '3', 'quality_eyes': '3', 'quality_mouth': '3', 'quality_ears': '3', 'quality_hair': '3', 'quality_neck': '3', 'facial_hair': '1.0', 'notes': None, 'race_common': 'black', 'gender_common': 'man'}","{'muct_id': '38', 'lighting': 'q', 'race_guess': 'b', 'gender_guess': 'm', 'quality': '3', 'quality_eyes': '3', 'quality_mouth': '3', 'quality_ears': '3', 'quality_hair': '3', 'quality_neck': '3', 'facial_hair': '2.0', 'notes': None, 'race_common': 'black', 'gender_common': 'man'}",,,,,,,,,,,,,,,,,,,,,,,,,,,,,,,,,,,,,,,,,,,,,,6263583da53131fc082276ad,62635315c2c7645fef78b5e6,600765ae65acb0264f4143f9
5409,6263591306b19921fe99c5bd,Chrome,3.0,main_task,1.0,3.0,chris,"4/22/2022, 9:40:35 PM",vhyawytblvotmo4hjf56,0.0-8.0,pilot_prolific_no_filler,40,man,100,2.0,white,50R,C,1635.0,"['../stimuli/version1_gray_lm/id156_00C_U.png', '../stimuli/version1_gray_lm/id156_50L_D.png', '../stimuli/version1_gray_lm/id100_50R_C.png']",88114.0,0.0,13.0,3.0,encoding,man,156,"[0, 1]",white,"['00C', '50L']","['U', 'D']",,"{'muct_id': '280', 'lighting': 'u', 'race_guess': 'w', 'gender_guess': 'm', 'quality': '3', 'quality_eyes': '3', 'quality_mouth': '3', 'quality_ears': '3', 'quality_hair': '3', 'quality_neck': '3', 'facial_hair': '0.0', 'notes': None, 'race_common': 'white', 'gender_common': 'man'}","{'muct_id': '258', 'lighting': 'u', 'race_guess': 'w', 'gender_guess': 'm', 'quality': '2', 'quality_eyes': '3', 'quality_mouth': '3', 'quality_ears': '3', 'quality_hair': '2', 'quality_neck': '3', 'facial_hair': '0.0', 'notes': 'hair', 'race_common': 'white', 'gender_common': 'man'}",,,,,,,,,,,,,,,,,,,,,,,,,,,,,,,,,,,,,,,,,,,,,,62635851a92cc565e302a7ee,62635315c2c7645fef78b5e6,5d3dfb9322ed840001722278
5410,6263591406b19921fe99c5be,Chrome,2.0,main_task,1.0,2.0,chris,"4/22/2022, 9:40:37 PM",t99a55ysjufz4nt2e8o5,0.0-10.0,pilot_prolific_no_filler,39,man,105,1.0,black,50L,D,4010.0,"['../stimuli/version1_gray_lm/id040_50R_C.png', '../stimuli/version1_gray_lm/id105_50L_D.png', '../stimuli/version1_gray_lm/id040_00C_U.png']",447517.0,0.0,15.0,4.0,encoding,man,040,"[0, 2]",black,"['50R', '00C']","['C', 'U']",,"{'muct_id': '290', 'lighting': 't', 'race_guess': 'b', 'gender_guess': 'm', 'quality': '3', 'quality_eyes': '3', 'quality_mouth': '3', 'quality_ears': '3', 'quality_hair': '3', 'quality_neck': '3', 'facial_hair': '2.0', 'notes': None, 'race_common': 'black', 'gender_common': 'man'}","{'muct_id': '55', 'lighting': 'r', 'race_guess': 'b', 'gender_guess': 'm', 'quality': '3', 'quality_eyes': '3', 'quality_mouth': '3', 'quality_ears': '3', 'quality_hair': '3', 'quality_neck': '3', 'facial_hair': '3.0', 'notes': 'beard', 'race_common': 'black', 'gender_common': 'man'}",,,,,,,,,,,,,,,,,,,,,,,,,,,,,,,,,,,,,,,,,,,,,,6263574769771ec497af678a,62635315c2c7645fef78b5e6,5ff7a8b2c0a7854b6ce5c375
5411,6263591606b19921fe99c5bf,Chrome,1.0,main_task,1.0,1.0,chris,"4/22/2022, 9:40:38 PM",v5ytae9f89h92kk5zw4d,0.0-14.0,pilot_prolific_no_filler,37,man,104,0.0,white,50L,D,2513.0,"['../stimuli/version1_gray_lm/id104_50L_D.png', '../stimuli/version1_gray_lm/id063_50R_U.png', '../stimuli/version1_gray_lm/id063_00C_C.png']",205669.0,0.0,19.0,6.0,encoding,man,063,"[1, 2]",white,"['50R', '00C']","['U', 'C']",,"{'muct_id': '287', 'lighting': 't', 'race_guess': 'w', 'gender_guess': 'm', 'quality': '3', 'quality_eyes': '3', 'quality_mouth': '3', 'quality_ears': '3', 'quality_hair': '3', 'quality_neck': '3', 'facial_hair': '2.0', 'notes': None, 'race_common': 'white', 'gender_common': 'man'}","{'muct_id': '203', 'lighting': 'u', 'race_guess': 'i', 'gender_guess': 'm', 'quality': '2', 'quality_eyes': '2', 'quality_mouth': '3', 'quality_ears': '3', 'quality_hair': '3', 'quality_neck': '3', 'facial_hair': '2.0', 'notes': 'mouth', 'race_common': 'white', 'gender_common': 'man'}",,,,,,,,,,,,,,,,,,,,,,,,,,,,,,,,,,,,,,,,,,,,,,6263583da53131fc082276ad,62635315c2c7645fef78b5e6,600765ae65acb0264f4143f9
5412,6263591606b19921fe99c5c0,Chrome,1.0,main_task,1.0,1.0,chris,"4/22/2022, 9:40:39 PM",vhyawytblvotmo4hjf56,0.0-10.0,pilot_prolific_no_filler,37,woman,103,0.0,black,25L,C,2724.0,"['../stimuli/version1_gray_lm/id103_25L_C.png', '../stimuli/version1_gray_lm/id027_00C_U.png', '../stimuli/version1_gray_lm/id027_25R_D.png']",91668.0,0.0,15.0,4.0,encoding,woman,027,"[1, 2]",black,"['00C', '25R']","['U', 'D']",,"{'muct_id': '285', 'lighting': 'v', 'race_guess': 'b', 'gender_guess': 'w', 'quality': '3', 'quality_eyes': '3', 'quality_mouth': '3', 'quality_ears': '3', 'quality_hair': '3', 'quality_neck': '3', 'facial_hair': '0.0', 'notes': 'earrings', 'race_common': 'black', 'gender_common': 'woman'}","{'muct_id': '37', 'lighting': 'q', 'race_guess': 'b', 'gender_guess': 'w', 'quality': '3', 'quality_eyes': '3', 'quality_mouth': '3', 'quality_ears': '3', 'quality_hair': '3', 'quality_neck': '3', 'facial_hair': '0.0', 'notes': 'earrings', 'race_common': 'black', 'gender_common': 'woman'}",,,,,,,,,,,,,,,,,,,,,,,,,,,,,,,,,,,,,,,,,,,,,,62635851a92cc565e302a7ee,62635315c2c7645fef78b5e6,5d3dfb9322ed840001722278
5413,6263591906b19921fe99c5c1,Chrome,3.0,main_task,1.0,3.0,chris,"4/22/2022, 9:40:42 PM",t99a55ysjufz4nt2e8o5,0.0-12.0,pilot_prolific_no_filler,40,woman,102,2.0,white,00C,C,3552.0,"['../stimuli/version1_gray_lm/id084_50L_U.png', '../stimuli/version1_gray_lm/id084_50R_D.png', '../stimuli/version1_gray_lm/id102_00C_C.png']",452352.0,0.0,17.0,5.0,encoding,woman,084,"[0, 1]",white,"['50L', '50R']","['U', 'D']",,"{'muct_id': '283', 'lighting': 't', 'race_guess': 'i', 'gender_guess': 'w', 'quality': '3', 'quality_eyes': '3', 'quality_mouth': '3', 'quality_ears': '3', 'quality_hair': '3', 'quality_neck': '3', 'facial_hair': '0.0', 'notes': 'pottu', 'race_common': 'white', 'gender_common': 'woman'}","{'muct_id': '248', 'lighting': 'u', 'race_guess': 'w', 'gender_guess': 'w', 'quality': '3', 'quality_eyes': '3', 'quality_mouth': '3', 'quality_ears': '3', 'quality_hair': '3', 'quality_neck': '3', 'facial_hair': '0.0', 'notes': None, 'race_common': 'white', 'gender_common': 'woman'}",,,,,,,,,,,,,,,,,,,,,,,,,,,,,,,,,,,,,,,,,,,,,,6263574769771ec497af678a,62635315c2c7645fef78b5e6,5ff7a8b2c0a7854b6ce5c375
5414,6263591a06b19921fe99c5c2,Chrome,2.0,main_task,1.0,2.0,chris,"4/22/2022, 9:40:43 PM",vhyawytblvotmo4hjf56,0.0-12.0,pilot_prolific_no_filler,39,man,112,1.0,black,50L,D,3338.0,"['../stimuli/version1_gray_lm/id056_00C_C.png', '../stimuli/version1_gray_lm/id112_50L_D.png', '../stimuli/version1_gray_lm/id056_50R_U.png']",95870.0,0.0,17.0,5.0,encoding,man,056,"[0, 2]",black,"['00C', '50R']","['C', 'U']",,"{'muct_id': '406', 'lighting': 'w', 'race_guess': 'b', 'gender_guess': 'm', 'quality': '3', 'quality_eyes': '3', 'quality_mouth': '3', 'quality_ears': '3', 'quality_hair': '3', 'quality_neck': '3', 'facial_hair': '1.0', 'notes': None, 'race_common': 'black', 'gender_common': 'man'}","{'muct_id': '82', 'lighting': 'q', 'race_guess': 'b', 'gender_guess': 'm', 'quality': '3', 'quality_eyes': '3', 'quality_mouth': '3', 'quality_ears': '3', 'quality_hair': '3', 'quality_neck': '3', 'facial_hair': '1.0', 'notes': None, 'race_common': 'black', 'gender_common': 'man'}",,,,,,,,,,,,,,,,,,,,,,,,,,,,,,,,,,,,,,,,,,,,,,62635851a92cc565e302a7ee,62635315c2c7645fef78b5e6,5d3dfb9322ed840001722278
5415,6263591b06b19921fe99c5c3,Chrome,3.0,main_task,1.0,3.0,chris,"4/22/2022, 9:40:43 PM",v5ytae9f89h92kk5zw4d,0.0-16.0,pilot_prolific_no_filler,40,woman,102,2.0,white,50L,U,4044.0,"['../stimuli/version1_gray_lm/id017_00C_C.png', '../stimuli/version1_gray_lm/id017_25R_D.png', '../stimuli/version1_gray_lm/id102_50L_U.png']",210793.0,0.0,21.0,7.0,encoding,woman,017,"[0, 1]",white,"['00C', '25R']","['C', 'D']",,"{'muct_id': '283', 'lighting': 't', 'race_guess': 'i', 'gender_guess': 'w', 'quality': '3', 'quality_eyes': '3', 'quality_mouth': '3', 'quality_ears': '3', 'quality_hair': '3', 'quality_neck': '3', 'facial_hair': '0.0', 'notes': 'pottu', 'race_common': 'white', 'gender_common': 'woman'}","{'muct_id': '19', 'lighting': 'r', 'race_guess': 'w', 'gender_guess': 'w', 'quality': '3', 'quality_eyes': '3', 'quality_mouth': '3', 'quality_ears': '3', 'quality_hair': '3', 'quality_neck': '3', 'facial_hair': '0.0', 'notes': None, 'race_common': 'white', 'gender_common': 'woman'}",,,,,,,,,,,,,,,,,,,,,,,,,,,,,,,,,,,,,,,,,,,,,,6263583da53131fc082276ad,62635315c2c7645fef78b5e6,600765ae65acb0264f4143f9
5416,6263591e06b19921fe99c5c4,Chrome,3.0,main_task,1.0,3.0,chris,"4/22/2022, 9:40:46 PM",vhyawytblvotmo4hjf56,0.0-14.0,pilot_prolific_no_filler,40,woman,102,2.0,white,50R,U,2494.0,"['../stimuli/version1_gray_lm/id029_00C_C.png', '../stimuli/version1_gray_lm/id029_25L_D.png', '../stimuli/version1_gray_lm/id102_50R_U.png']",99124.0,0.0,19.0,6.0,encoding,woman,029,"[0, 1]",white,"['00C', '25L']","['C', 'D']",,"{'muct_id': '283', 'lighting': 't', 'race_guess': 'i', 'gender_guess': 'w', 'quality': '3', 'quality_eyes': '3', 'quality_mouth': '3', 'quality_ears': '3', 'quality_hair': '3', 'quality_neck': '3', 'facial_hair': '0.0', 'notes': 'pottu', 'race_common': 'white', 'gender_common': 'woman'}","{'muct_id': '39', 'lighting': 'r', 'race_guess': 'w', 'gender_guess': 'w', 'quality': '3', 'quality_eyes': '3', 'quality_mouth': '3', 'quality_ears': '3', 'quality_hair': '3', 'quality_neck': '3', 'facial_hair': '0.0', 'notes': 'earrings hair', 'race_common': 'white', 'gender_common': 'woman'}",,,,,,,,,,,,,,,,,,,,,,,,,,,,,,,,,,,,,,,,,,,,,,62635851a92cc565e302a7ee,62635315c2c7645fef78b5e6,5d3dfb9322ed840001722278
5417,6263591f06b19921fe99c5c5,Chrome,3.0,main_task,1.0,3.0,chris,"4/22/2022, 9:40:48 PM",t99a55ysjufz4nt2e8o5,0.0-14.0,pilot_prolific_no_filler,40,man,112,2.0,black,25L,U,4876.0,"['../stimuli/version1_gray_lm/id021_00C_C.png', '../stimuli/version1_gray_lm/id021_25R_D.png', '../stimuli/version1_gray_lm/id112_25L_U.png']",458748.0,0.0,19.0,6.0,encoding,man,021,"[0, 1]",black,"['00C', '25R']","['C', 'D']",,"{'muct_id': '406', 'lighting': 'w', 'race_guess': 'b', 'gender_guess': 'm', 'quality': '3', 'quality_eyes': '3', 'quality_mouth': '3', 'quality_ears': '3', 'quality_hair': '3', 'quality_neck': '3', 'facial_hair': '1.0', 'notes': None, 'race_common': 'black', 'gender_common': 'man'}","{'muct_id': '25', 'lighting': 'r', 'race_guess': 'b', 'gender_guess': 'm', 'quality': '3', 'quality_eyes': '3', 'quality_mouth': '3', 'quality_ears': '3', 'quality_hair': '3', 'quality_neck': '3', 'facial_hair': '2.0', 'notes': None, 'race_common': 'black', 'gender_common': 'man'}",,,,,,,,,,,,,,,,,,,,,,,,,,,,,,,,,,,,,,,,,,,,,,6263574769771ec497af678a,62635315c2c7645fef78b5e6,5ff7a8b2c0a7854b6ce5c375
5418,6263592106b19921fe99c5c6,Chrome,1.0,main_task,1.0,1.0,chris,"4/22/2022, 9:40:50 PM",vhyawytblvotmo4hjf56,0.0-16.0,pilot_prolific_no_filler,37,man,104,0.0,white,00C,D,2953.0,"['../stimuli/version1_gray_lm/id104_00C_D.png', '../stimuli/version1_gray_lm/id061_50R_U.png', '../stimuli/version1_gray_lm/id061_25L_C.png']",102782.0,0.0,21.0,7.0,encoding,man,061,"[1, 2]",white,"['50R', '25L']","['U', 'C']",,"{'muct_id': '287', 'lighting': 't', 'race_guess': 'w', 'gender_guess': 'm', 'quality': '3', 'quality_eyes': '3', 'quality_mouth': '3', 'quality_ears': '3', 'quality_hair': '3', 'quality_neck': '3', 'facial_hair': '2.0', 'notes': None, 'race_common': 'white', 'gender_common': 'man'}","{'muct_id': '89', 'lighting': 'r', 'race_guess': 'w', 'gender_guess': 'm', 'quality': '3', 'quality_eyes': '3', 'quality_mouth': '3', 'quality_ears': '3', 'quality_hair': '3', 'quality_neck': '3', 'facial_hair': '2.0', 'notes': None, 'race_common': 'white', 'gender_common': 'man'}",,,,,,,,,,,,,,,,,,,,,,,,,,,,,,,,,,,,,,,,,,,,,,62635851a92cc565e302a7ee,62635315c2c7645fef78b5e6,5d3dfb9322ed840001722278
5419,6263592206b19921fe99c5c7,Chrome,,main_task,1.0,1.0,chris,"4/22/2022, 6:40:49 PM",pjd0b7zw3bepkgo6ol2s,0.0-86.0-0.0,pilot_prolific_no_filler,,,,,,,,2636.2999999970198,../stimuli/version1_gray_lm/id122_25R_D.png,180253.0,0.0,91.0,1.0,retrieval_practice,,,,,,,,,,,,,,,,,,,,,,,086,oddity,man,122,"{'muct_id': '425', 'lighting': 'x', 'race_guess': 'b', 'gender_guess': 'm', 'quality': '3', 'quality_eyes': '3', 'quality_mouth': '3', 'quality_ears': '3', 'quality_hair': '3', 'quality_neck': '3', 'facial_hair': '2.0', 'notes': None, 'race_common': 'black', 'gender_common': 'man'}",21,25R,D,black,76,old,25R,D,00C,0,,,,,,,,,,,,,,,,,,62635863c6ba26583dc286d3,62635315c2c7645fef78b5e5,5adeb4e9f6b58c0001fa70aa
5420,6263592306b19921fe99c5c8,Chrome,3.0,main_task,1.0,3.0,chris,"4/22/2022, 9:40:50 PM",v5ytae9f89h92kk5zw4d,0.0-18.0,pilot_prolific_no_filler,40,woman,111,2.0,black,25R,C,4320.0,"['../stimuli/version1_gray_lm/id059_25L_D.png', '../stimuli/version1_gray_lm/id059_00C_U.png', '../stimuli/version1_gray_lm/id111_25R_C.png']",218212.0,0.0,23.0,8.0,encoding,woman,059,"[0, 1]",black,"['25L', '00C']","['D', 'U']",,"{'muct_id': '405', 'lighting': 'w', 'race_guess': 'b', 'gender_guess': 'w', 'quality': '3', 'quality_eyes': '3', 'quality_mouth': '3', 'quality_ears': '3', 'quality_hair': '3', 'quality_neck': '3', 'facial_hair': '0.0', 'notes': 'hair earrings', 'race_common': 'black', 'gender_common': 'woman'}","{'muct_id': '86', 'lighting': 'q', 'race_guess': 'b', 'gender_guess': 'w', 'quality': '3', 'quality_eyes': '3', 'quality_mouth': '3', 'quality_ears': '3', 'quality_hair': '3', 'quality_neck': '3', 'facial_hair': '0.0', 'notes': 'earrings', 'race_common': 'black', 'gender_common': 'woman'}",,,,,,,,,,,,,,,,,,,,,,,,,,,,,,,,,,,,,,,,,,,,,,6263583da53131fc082276ad,62635315c2c7645fef78b5e6,600765ae65acb0264f4143f9
5421,6263592406b19921fe99c5c9,Chrome,1.0,main_task,1.0,1.0,chris,"4/22/2022, 9:40:53 PM",vhyawytblvotmo4hjf56,0.0-18.0,pilot_prolific_no_filler,37,woman,111,0.0,black,00C,C,2092.0,"['../stimuli/version1_gray_lm/id111_00C_C.png', '../stimuli/version1_gray_lm/id140_50R_U.png', '../stimuli/version1_gray_lm/id140_50L_D.png']",105798.0,0.0,23.0,8.0,encoding,woman,140,"[1, 2]",black,"['50R', '50L']","['U', 'D']",,"{'muct_id': '405', 'lighting': 'w', 'race_guess': 'b', 'gender_guess': 'w', 'quality': '3', 'quality_eyes': '3', 'quality_mouth': '3', 'quality_ears': '3', 'quality_hair': '3', 'quality_neck': '3', 'facial_hair': '0.0', 'notes': 'hair earrings', 'race_common': 'black', 'gender_common': 'woman'}","{'muct_id': '624', 'lighting': 'y', 'race_guess': 'b', 'gender_guess': 'w', 'quality': '3', 'quality_eyes': '3', 'quality_mouth': '3', 'quality_ears': '3', 'quality_hair': '3', 'quality_neck': '3', 'facial_hair': '0.0', 'notes': 'headband, earring', 'race_common': 'black', 'gender_common': 'woman'}",,,,,,,,,,,,,,,,,,,,,,,,,,,,,,,,,,,,,,,,,,,,,,62635851a92cc565e302a7ee,62635315c2c7645fef78b5e6,5d3dfb9322ed840001722278
5422,6263592406b19921fe99c5ca,Chrome,2.0,main_task,1.0,2.0,chris,"4/22/2022, 9:40:54 PM",t99a55ysjufz4nt2e8o5,0.0-16.0,pilot_prolific_no_filler,39,man,104,1.0,white,25L,U,3940.0,"['../stimuli/version1_gray_lm/id050_00C_C.png', '../stimuli/version1_gray_lm/id104_25L_U.png', '../stimuli/version1_gray_lm/id050_50R_D.png']",463876.0,0.0,21.0,7.0,encoding,man,050,"[0, 2]",white,"['00C', '50R']","['C', 'D']",,"{'muct_id': '287', 'lighting': 't', 'race_guess': 'w', 'gender_guess': 'm', 'quality': '3', 'quality_eyes': '3', 'quality_mouth': '3', 'quality_ears': '3', 'quality_hair': '3', 'quality_neck': '3', 'facial_hair': '2.0', 'notes': None, 'race_common': 'white', 'gender_common': 'man'}","{'muct_id': '70', 'lighting': 'r', 'race_guess': 'w', 'gender_guess': 'm', 'quality': '3', 'quality_eyes': '3', 'quality_mouth': '3', 'quality_ears': '3', 'quality_hair': '3', 'quality_neck': '3', 'facial_hair': '4.0', 'notes': 'beard', 'race_common': 'white', 'gender_common': 'man'}",,,,,,,,,,,,,,,,,,,,,,,,,,,,,,,,,,,,,,,,,,,,,,6263574769771ec497af678a,62635315c2c7645fef78b5e6,5ff7a8b2c0a7854b6ce5c375
5423,6263592606b19921fe99c5cb,Chrome,,main_task,1.0,1.0,chris,"4/22/2022, 6:40:53 PM",pjd0b7zw3bepkgo6ol2s,0.0-87.0-0.0,pilot_prolific_no_filler,,,,,,,,2082.4000000059605,../stimuli/version1_gray_lm/id120_25R_U.png,184134.0,0.0,93.0,2.0,retrieval_practice,,,,,,,,,,,,,,,,,,,,,,,020,oddity,woman,120,"{'muct_id': '421', 'lighting': 'x', 'race_guess': 'b', 'gender_guess': 'w', 'quality': '3', 'quality_eyes': '3', 'quality_mouth': '3', 'quality_ears': '3', 'quality_hair': '3', 'quality_neck': '3', 'facial_hair': '0.0', 'notes': None, 'race_common': 'black', 'gender_common': 'woman'}",18,25R,U,black,91,old,25R,U,00C,0,,,,,,,,,,,,,,,,,,62635863c6ba26583dc286d3,62635315c2c7645fef78b5e5,5adeb4e9f6b58c0001fa70aa
5424,6263592706b19921fe99c5cc,Chrome,3.0,main_task,0.0,2.0,chris,"4/22/2022, 9:40:56 PM",vhyawytblvotmo4hjf56,0.0-20.0,pilot_prolific_no_filler,40,woman,109,1.0,white,00C,U,1978.0,"['../stimuli/version1_gray_lm/id031_50R_C.png', '../stimuli/version1_gray_lm/id109_00C_U.png', '../stimuli/version1_gray_lm/id031_25L_D.png']",108589.0,0.0,25.0,9.0,encoding,woman,031,"[0, 2]",white,"['50R', '25L']","['C', 'D']",,"{'muct_id': '401', 'lighting': 'w', 'race_guess': 'w', 'gender_guess': 'w', 'quality': '3', 'quality_eyes': '3', 'quality_mouth': '3', 'quality_ears': '3', 'quality_hair': '3', 'quality_neck': '3', 'facial_hair': '0.0', 'notes': 'mouth', 'race_common': 'white', 'gender_common': 'woman'}","{'muct_id': '42', 'lighting': 'q', 'race_guess': 'u', 'gender_guess': 'w', 'quality': '2', 'quality_eyes': '3', 'quality_mouth': '3', 'quality_ears': '2', 'quality_hair': '3', 'quality_neck': '3', 'facial_hair': '0.0', 'notes': 'mouth', 'race_common': 'white', 'gender_common': 'woman'}",,,,,,,,,,,,,,,,,,,,,,,,,,,,,,,,,,,,,,,,,,,,,,62635851a92cc565e302a7ee,62635315c2c7645fef78b5e6,5d3dfb9322ed840001722278
5425,6263592906b19921fe99c5cd,Chrome,,main_task,0.0,0.0,chris,"4/22/2022, 6:40:56 PM",pjd0b7zw3bepkgo6ol2s,0.0-88.0-0.0,pilot_prolific_no_filler,,,,,,,,2114.5,../stimuli/version1_gray_lm/id047_25L_C.png,186950.0,0.0,95.0,3.0,retrieval_practice,,,,,,,,,,,,,,,,,,,,,,,,,,047,"{'muct_id': '64', 'lighting': 'q', 'race_guess': 'w', 'gender_guess': 'm', 'quality': '3', 'quality_eyes': '3', 'quality_mouth': '3', 'quality_ears': '3', 'quality_hair': '3', 'quality_neck': '3', 'facial_hair': '0.0', 'notes': None, 'race_common': 'white', 'gender_common': 'man'}",,,,white,84,new,25L,C,,,,,,,,,,,,,,,,,,,,62635863c6ba26583dc286d3,62635315c2c7645fef78b5e5,5adeb4e9f6b58c0001fa70aa
5426,6263592906b19921fe99c5ce,Chrome,1.0,main_task,1.0,1.0,chris,"4/22/2022, 9:40:58 PM",t99a55ysjufz4nt2e8o5,0.0-18.0,pilot_prolific_no_filler,37,woman,111,0.0,black,00C,U,3621.0,"['../stimuli/version1_gray_lm/id111_00C_U.png', '../stimuli/version1_gray_lm/id142_25L_C.png', '../stimuli/version1_gray_lm/id142_50R_D.png']",468764.0,0.0,23.0,8.0,encoding,woman,142,"[1, 2]",black,"['25L', '50R']","['C', 'D']",,"{'muct_id': '405', 'lighting': 'w', 'race_guess': 'b', 'gender_guess': 'w', 'quality': '3', 'quality_eyes': '3', 'quality_mouth': '3', 'quality_ears': '3', 'quality_hair': '3', 'quality_neck': '3', 'facial_hair': '0.0', 'notes': 'hair earrings', 'race_common': 'black', 'gender_common': 'woman'}","{'muct_id': '87', 'lighting': 'r', 'race_guess': 'b', 'gender_guess': 'w', 'quality': '3', 'quality_eyes': '3', 'quality_mouth': '3', 'quality_ears': '3', 'quality_hair': '3', 'quality_neck': '3', 'facial_hair': '0.0', 'notes': 'earrings hair', 'race_common': 'black', 'gender_common': 'woman'}",,,,,,,,,,,,,,,,,,,,,,,,,,,,,,,,,,,,,,,,,,,,,,6263574769771ec497af678a,62635315c2c7645fef78b5e6,5ff7a8b2c0a7854b6ce5c375
5427,6263592b06b19921fe99c5cf,Chrome,2.0,main_task,1.0,2.0,chris,"4/22/2022, 9:41:00 PM",vhyawytblvotmo4hjf56,0.0-22.0,pilot_prolific_no_filler,39,man,117,1.0,black,50L,U,2689.0,"['../stimuli/version1_gray_lm/id001_00C_D.png', '../stimuli/version1_gray_lm/id117_50L_U.png', '../stimuli/version1_gray_lm/id001_50R_C.png']",112329.0,0.0,27.0,10.0,encoding,man,001,"[0, 2]",black,"['00C', '50R']","['D', 'C']",,"{'muct_id': '417', 'lighting': 'w', 'race_guess': 'b', 'gender_guess': 'm', 'quality': '3', 'quality_eyes': '3', 'quality_mouth': '3', 'quality_ears': '3', 'quality_hair': '3', 'quality_neck': '3', 'facial_hair': '1.0', 'notes': 'mouth', 'race_common': 'black', 'gender_common': 'man'}","{'muct_id': '1', 'lighting': 'q', 'race_guess': 'b', 'gender_guess': 'm', 'quality': '3', 'quality_eyes': '3', 'quality_mouth': '3', 'quality_ears': '3', 'quality_hair': '3', 'quality_neck': '3', 'facial_hair': '1.0', 'notes': None, 'race_common': 'black', 'gender_common': 'man'}",,,,,,,,,,,,,,,,,,,,,,,,,,,,,,,,,,,,,,,,,,,,,,62635851a92cc565e302a7ee,62635315c2c7645fef78b5e6,5d3dfb9322ed840001722278
5428,6263592d06b19921fe99c5d0,Chrome,2.0,main_task,1.0,2.0,chris,"4/22/2022, 9:41:00 PM",v5ytae9f89h92kk5zw4d,0.0-20.0,pilot_prolific_no_filler,39,man,113,1.0,black,50L,C,8852.0,"['../stimuli/version1_gray_lm/id040_25R_D.png', '../stimuli/version1_gray_lm/id113_50L_C.png', '../stimuli/version1_gray_lm/id040_00C_U.png']",228148.0,0.0,25.0,9.0,encoding,man,040,"[0, 2]",black,"['25R', '00C']","['D', 'U']",,"{'muct_id': '407', 'lighting': 'x', 'race_guess': 'u', 'gender_guess': 'm', 'quality': '3', 'quality_eyes': '3', 'quality_mouth': '3', 'quality_ears': '3', 'quality_hair': '3', 'quality_neck': '3', 'facial_hair': '3.0', 'notes': 'beard', 'race_common': 'black', 'gender_common': 'man'}","{'muct_id': '55', 'lighting': 'r', 'race_guess': 'b', 'gender_guess': 'm', 'quality': '3', 'quality_eyes': '3', 'quality_mouth': '3', 'quality_ears': '3', 'quality_hair': '3', 'quality_neck': '3', 'facial_hair': '3.0', 'notes': 'beard', 'race_common': 'black', 'gender_common': 'man'}",,,,,,,,,,,,,,,,,,,,,,,,,,,,,,,,,,,,,,,,,,,,,,6263583da53131fc082276ad,62635315c2c7645fef78b5e6,600765ae65acb0264f4143f9
5429,6263592e06b19921fe99c5d1,Chrome,,main_task,0.0,0.0,chris,"4/22/2022, 6:41:01 PM",pjd0b7zw3bepkgo6ol2s,0.0-88.1-0.1,pilot_prolific_no_filler,,,,,,,,4150.399999991059,../stimuli/version1_gray_lm/id047_25L_C.png,192186.0,0.0,97.0,4.0,retrieval_practice,,,,,,,,,,,,,,,,,,,,,,,,,,047,"{'muct_id': '64', 'lighting': 'q', 'race_guess': 'w', 'gender_guess': 'm', 'quality': '3', 'quality_eyes': '3', 'quality_mouth': '3', 'quality_ears': '3', 'quality_hair': '3', 'quality_neck': '3', 'facial_hair': '0.0', 'notes': None, 'race_common': 'white', 'gender_common': 'man'}",,,,white,89,new,25L,C,,,,,,,,,,,,,,,,,,,,62635863c6ba26583dc286d3,62635315c2c7645fef78b5e5,5adeb4e9f6b58c0001fa70aa
5430,6263592e06b19921fe99c5d2,Chrome,3.0,main_task,1.0,3.0,chris,"4/22/2022, 9:41:03 PM",vhyawytblvotmo4hjf56,0.0-24.0,pilot_prolific_no_filler,40,man,113,2.0,black,50R,U,2582.0,"['../stimuli/version1_gray_lm/id065_00C_D.png', '../stimuli/version1_gray_lm/id065_25L_C.png', '../stimuli/version1_gray_lm/id113_50R_U.png']",115681.0,0.0,29.0,11.0,encoding,man,065,"[0, 1]",black,"['00C', '25L']","['D', 'C']",,"{'muct_id': '407', 'lighting': 'x', 'race_guess': 'u', 'gender_guess': 'm', 'quality': '3', 'quality_eyes': '3', 'quality_mouth': '3', 'quality_ears': '3', 'quality_hair': '3', 'quality_neck': '3', 'facial_hair': '3.0', 'notes': 'beard', 'race_common': 'black', 'gender_common': 'man'}","{'muct_id': '206', 'lighting': 't', 'race_guess': 'b', 'gender_guess': 'm', 'quality': '3', 'quality_eyes': '3', 'quality_mouth': '3', 'quality_ears': '3', 'quality_hair': '3', 'quality_neck': '3', 'facial_hair': '1.0', 'notes': None, 'race_common': 'black', 'gender_common': 'man'}",,,,,,,,,,,,,,,,,,,,,,,,,,,,,,,,,,,,,,,,,,,,,,62635851a92cc565e302a7ee,62635315c2c7645fef78b5e6,5d3dfb9322ed840001722278
5431,6263593006b19921fe99c5d3,Chrome,1.0,main_task,1.0,1.0,chris,"4/22/2022, 9:41:05 PM",t99a55ysjufz4nt2e8o5,0.0-20.0,pilot_prolific_no_filler,37,man,113,0.0,black,50L,U,4922.0,"['../stimuli/version1_gray_lm/id113_50L_U.png', '../stimuli/version1_gray_lm/id098_50R_D.png', '../stimuli/version1_gray_lm/id098_00C_C.png']",475381.0,0.0,25.0,9.0,encoding,man,098,"[1, 2]",black,"['50R', '00C']","['D', 'C']",,"{'muct_id': '407', 'lighting': 'x', 'race_guess': 'u', 'gender_guess': 'm', 'quality': '3', 'quality_eyes': '3', 'quality_mouth': '3', 'quality_ears': '3', 'quality_hair': '3', 'quality_neck': '3', 'facial_hair': '3.0', 'notes': 'beard', 'race_common': 'black', 'gender_common': 'man'}","{'muct_id': '274', 'lighting': 't', 'race_guess': 'b', 'gender_guess': 'm', 'quality': '3', 'quality_eyes': '3', 'quality_mouth': '3', 'quality_ears': '3', 'quality_hair': '3', 'quality_neck': '3', 'facial_hair': '4.0', 'notes': None, 'race_common': 'black', 'gender_common': 'man'}",,,,,,,,,,,,,,,,,,,,,,,,,,,,,,,,,,,,,,,,,,,,,,6263574769771ec497af678a,62635315c2c7645fef78b5e6,5ff7a8b2c0a7854b6ce5c375
5432,6263593006b19921fe99c5d4,Chrome,3.0,main_task,1.0,3.0,chris,"4/22/2022, 9:41:04 PM",v5ytae9f89h92kk5zw4d,0.0-22.0,pilot_prolific_no_filler,40,man,117,2.0,black,00C,D,2490.0,"['../stimuli/version1_gray_lm/id058_25L_U.png', '../stimuli/version1_gray_lm/id058_25R_C.png', '../stimuli/version1_gray_lm/id117_00C_D.png']",231822.0,0.0,27.0,10.0,encoding,man,058,"[0, 1]",black,"['25L', '25R']","['U', 'C']",,"{'muct_id': '417', 'lighting': 'w', 'race_guess': 'b', 'gender_guess': 'm', 'quality': '3', 'quality_eyes': '3', 'quality_mouth': '3', 'quality_ears': '3', 'quality_hair': '3', 'quality_neck': '3', 'facial_hair': '1.0', 'notes': 'mouth', 'race_common': 'black', 'gender_common': 'man'}","{'muct_id': '84', 'lighting': 'q', 'race_guess': 'b', 'gender_guess': 'm', 'quality': '2', 'quality_eyes': '2', 'quality_mouth': '3', 'quality_ears': '3', 'quality_hair': '3', 'quality_neck': '3', 'facial_hair': '3.0', 'notes': 'beard', 'race_common': 'black', 'gender_common': 'man'}",,,,,,,,,,,,,,,,,,,,,,,,,,,,,,,,,,,,,,,,,,,,,,6263583da53131fc082276ad,62635315c2c7645fef78b5e6,600765ae65acb0264f4143f9
5433,6263593106b19921fe99c5d5,Chrome,,main_task,1.0,0.0,chris,"4/22/2022, 6:41:04 PM",pjd0b7zw3bepkgo6ol2s,0.0-88.2-0.2,pilot_prolific_no_filler,,,,,,,,2105.3999999910593,../stimuli/version1_gray_lm/id047_25L_C.png,195156.0,0.0,99.0,5.0,retrieval_practice,,,,,,,,,,,,,,,,,,,,,,,,,,047,"{'muct_id': '64', 'lighting': 'q', 'race_guess': 'w', 'gender_guess': 'm', 'quality': '3', 'quality_eyes': '3', 'quality_mouth': '3', 'quality_ears': '3', 'quality_hair': '3', 'quality_neck': '3', 'facial_hair': '0.0', 'notes': None, 'race_common': 'white', 'gender_common': 'man'}",,,,white,8,new,25L,C,,,,,,,,,,,,,,,,,,,,62635863c6ba26583dc286d3,62635315c2c7645fef78b5e5,5adeb4e9f6b58c0001fa70aa
5434,6263593206b19921fe99c5d6,Chrome,1.0,main_task,0.0,3.0,chris,"4/22/2022, 9:41:06 PM",vhyawytblvotmo4hjf56,0.0-26.0,pilot_prolific_no_filler,37,woman,114,2.0,white,50L,C,2667.0,"['../stimuli/version1_gray_lm/id003_00C_D.png', '../stimuli/version1_gray_lm/id003_50R_U.png', '../stimuli/version1_gray_lm/id114_50L_C.png']",119130.0,0.0,31.0,12.0,encoding,woman,003,"[0, 1]",white,"['00C', '50R']","['D', 'U']",,"{'muct_id': '410', 'lighting': 'w', 'race_guess': 'w', 'gender_guess': 'w', 'quality': '3', 'quality_eyes': '3', 'quality_mouth': '3', 'quality_ears': '3', 'quality_hair': '3', 'quality_neck': '3', 'facial_hair': '0.0', 'notes': 'makeup mouth', 'race_common': 'white', 'gender_common': 'woman'}","{'muct_id': '3', 'lighting': 's', 'race_guess': 'i', 'gender_guess': 'w', 'quality': '2', 'quality_eyes': '3', 'quality_mouth': '3', 'quality_ears': '3', 'quality_hair': '2', 'quality_neck': '3', 'facial_hair': '0.0', 'notes': 'hair', 'race_common': 'white', 'gender_common': 'woman'}",,,,,,,,,,,,,,,,,,,,,,,,,,,,,,,,,,,,,,,,,,,,,,62635851a92cc565e302a7ee,62635315c2c7645fef78b5e6,5d3dfb9322ed840001722278
5435,6263593506b19921fe99c5d7,Chrome,2.0,main_task,1.0,2.0,chris,"4/22/2022, 9:41:10 PM",vhyawytblvotmo4hjf56,0.0-28.0,pilot_prolific_no_filler,39,man,116,1.0,white,25L,C,2484.0,"['../stimuli/version1_gray_lm/id080_00C_D.png', '../stimuli/version1_gray_lm/id116_25L_C.png', '../stimuli/version1_gray_lm/id080_25R_U.png']",122514.0,0.0,33.0,13.0,encoding,man,080,"[0, 2]",white,"['00C', '25R']","['D', 'U']",,"{'muct_id': '414', 'lighting': 'w', 'race_guess': 'w', 'gender_guess': 'm', 'quality': '3', 'quality_eyes': '3', 'quality_mouth': '3', 'quality_ears': '3', 'quality_hair': '3', 'quality_neck': '3', 'facial_hair': '0.0', 'notes': None, 'race_common': 'white', 'gender_common': 'man'}","{'muct_id': '240', 'lighting': 'u', 'race_guess': 'w', 'gender_guess': 'm', 'quality': '3', 'quality_eyes': '3', 'quality_mouth': '3', 'quality_ears': '3', 'quality_hair': '3', 'quality_neck': '3', 'facial_hair': '0.0', 'notes': 'mouth', 'race_common': 'white', 'gender_common': 'man'}",,,,,,,,,,,,,,,,,,,,,,,,,,,,,,,,,,,,,,,,,,,,,,62635851a92cc565e302a7ee,62635315c2c7645fef78b5e6,5d3dfb9322ed840001722278
5436,6263593606b19921fe99c5d8,Chrome,,main_task,0.0,0.0,chris,"4/22/2022, 6:41:09 PM",pjd0b7zw3bepkgo6ol2s,0.0-90.0,pilot_prolific_no_filler,,,,,,,,2826.7999999970198,../stimuli/version1_gray_lm/id050_50L_U.png,199994.0,0.0,102.0,1.0,retrieval,,,,,,,,,,,,,,,,,,,,,,,,,,050,"{'muct_id': '70', 'lighting': 'r', 'race_guess': 'w', 'gender_guess': 'm', 'quality': '3', 'quality_eyes': '3', 'quality_mouth': '3', 'quality_ears': '3', 'quality_hair': '3', 'quality_neck': '3', 'facial_hair': '4.0', 'notes': 'beard', 'race_common': 'white', 'gender_common': 'man'}",,,,white,83,new,50L,U,,,,,,,,,,,,,,,,,,,,62635863c6ba26583dc286d3,62635315c2c7645fef78b5e5,5adeb4e9f6b58c0001fa70aa
5437,6263593606b19921fe99c5d9,Chrome,2.0,main_task,1.0,2.0,chris,"4/22/2022, 9:41:11 PM",t99a55ysjufz4nt2e8o5,0.0-22.0,pilot_prolific_no_filler,39,woman,114,1.0,white,50R,C,5227.0,"['../stimuli/version1_gray_lm/id088_00C_D.png', '../stimuli/version1_gray_lm/id114_50R_C.png', '../stimuli/version1_gray_lm/id088_50L_U.png']",481743.0,0.0,27.0,10.0,encoding,woman,088,"[0, 2]",white,"['00C', '50L']","['D', 'U']",,"{'muct_id': '410', 'lighting': 'w', 'race_guess': 'w', 'gender_guess': 'w', 'quality': '3', 'quality_eyes': '3', 'quality_mouth': '3', 'quality_ears': '3', 'quality_hair': '3', 'quality_neck': '3', 'facial_hair': '0.0', 'notes': 'makeup mouth', 'race_common': 'white', 'gender_common': 'woman'}","{'muct_id': '252', 'lighting': 't', 'race_guess': 'w', 'gender_guess': 'w', 'quality': '3', 'quality_eyes': '3', 'quality_mouth': '3', 'quality_ears': '3', 'quality_hair': '3', 'quality_neck': '3', 'facial_hair': '0.0', 'notes': 'hair', 'race_common': 'white', 'gender_common': 'woman'}",,,,,,,,,,,,,,,,,,,,,,,,,,,,,,,,,,,,,,,,,,,,,,6263574769771ec497af678a,62635315c2c7645fef78b5e6,5ff7a8b2c0a7854b6ce5c375
5438,6263593706b19921fe99c5da,Chrome,1.0,main_task,0.0,2.0,chris,"4/22/2022, 9:41:11 PM",v5ytae9f89h92kk5zw4d,0.0-24.0,pilot_prolific_no_filler,37,woman,114,1.0,white,50L,D,6053.0,"['../stimuli/version1_gray_lm/id054_00C_C.png', '../stimuli/version1_gray_lm/id114_50L_D.png', '../stimuli/version1_gray_lm/id054_25R_U.png']",239057.0,0.0,29.0,11.0,encoding,woman,054,"[0, 2]",white,"['00C', '25R']","['C', 'U']",,"{'muct_id': '410', 'lighting': 'w', 'race_guess': 'w', 'gender_guess': 'w', 'quality': '3', 'quality_eyes': '3', 'quality_mouth': '3', 'quality_ears': '3', 'quality_hair': '3', 'quality_neck': '3', 'facial_hair': '0.0', 'notes': 'makeup mouth', 'race_common': 'white', 'gender_common': 'woman'}","{'muct_id': '80', 'lighting': 's', 'race_guess': 'b', 'gender_guess': 'w', 'quality': '3', 'quality_eyes': '3', 'quality_mouth': '3', 'quality_ears': '3', 'quality_hair': '3', 'quality_neck': '3', 'facial_hair': '0.0', 'notes': 'earrings', 'race_common': 'white', 'gender_common': 'woman'}",,,,,,,,,,,,,,,,,,,,,,,,,,,,,,,,,,,,,,,,,,,,,,6263583da53131fc082276ad,62635315c2c7645fef78b5e6,600765ae65acb0264f4143f9
5439,6263593806b19921fe99c5db,Chrome,3.0,main_task,1.0,3.0,chris,"4/22/2022, 9:41:12 PM",vhyawytblvotmo4hjf56,0.0-30.0,pilot_prolific_no_filler,40,man,115,2.0,white,50L,D,1755.0,"['../stimuli/version1_gray_lm/id032_00C_C.png', '../stimuli/version1_gray_lm/id032_50R_U.png', '../stimuli/version1_gray_lm/id115_50L_D.png']",125090.0,0.0,35.0,14.0,encoding,man,032,"[0, 1]",white,"['00C', '50R']","['C', 'U']",,"{'muct_id': '412', 'lighting': 'x', 'race_guess': 'w', 'gender_guess': 'm', 'quality': '3', 'quality_eyes': '3', 'quality_mouth': '3', 'quality_ears': '3', 'quality_hair': '3', 'quality_neck': '3', 'facial_hair': '0.0', 'notes': None, 'race_common': 'white', 'gender_common': 'man'}","{'muct_id': '43', 'lighting': 'q', 'race_guess': 'w', 'gender_guess': 'm', 'quality': '3', 'quality_eyes': '3', 'quality_mouth': '3', 'quality_ears': '3', 'quality_hair': '3', 'quality_neck': '3', 'facial_hair': '0.0', 'notes': None, 'race_common': 'white', 'gender_common': 'man'}",,,,,,,,,,,,,,,,,,,,,,,,,,,,,,,,,,,,,,,,,,,,,,62635851a92cc565e302a7ee,62635315c2c7645fef78b5e6,5d3dfb9322ed840001722278
5440,6263593806b19921fe99c5dc,Chrome,,main_task,0.0,1.0,chris,"4/22/2022, 6:41:12 PM",pjd0b7zw3bepkgo6ol2s,0.0-92.0,pilot_prolific_no_filler,,,,,,,,1843.2999999970198,../stimuli/version1_gray_lm/id114_25R_C.png,202574.0,0.0,104.0,2.0,retrieval,,,,,,,,,,,,,,,,,,,,,,,088,oddity,woman,114,"{'muct_id': '410', 'lighting': 'w', 'race_guess': 'w', 'gender_guess': 'w', 'quality': '3', 'quality_eyes': '3', 'quality_mouth': '3', 'quality_ears': '3', 'quality_hair': '3', 'quality_neck': '3', 'facial_hair': '0.0', 'notes': 'makeup mouth', 'race_common': 'white', 'gender_common': 'woman'}",9,25R,C,white,17,old,25R,C,00C,0,,,,,,,,,,,,,,,,,,62635863c6ba26583dc286d3,62635315c2c7645fef78b5e5,5adeb4e9f6b58c0001fa70aa
5441,6263593a06b19921fe99c5dd,Chrome,3.0,main_task,1.0,3.0,chris,"4/22/2022, 9:41:15 PM",vhyawytblvotmo4hjf56,0.0-32.0,pilot_prolific_no_filler,40,man,119,2.0,black,25L,C,1943.0,"['../stimuli/version1_gray_lm/id085_00C_U.png', '../stimuli/version1_gray_lm/id085_25R_D.png', '../stimuli/version1_gray_lm/id119_25L_C.png']",127727.0,0.0,37.0,15.0,encoding,man,085,"[0, 1]",black,"['00C', '25R']","['U', 'D']",,"{'muct_id': '420', 'lighting': 'w', 'race_guess': 'b', 'gender_guess': 'm', 'quality': '3', 'quality_eyes': '3', 'quality_mouth': '3', 'quality_ears': '3', 'quality_hair': '3', 'quality_neck': '3', 'facial_hair': '0.0', 'notes': None, 'race_common': 'black', 'gender_common': 'man'}","{'muct_id': '249', 'lighting': 't', 'race_guess': 'b', 'gender_guess': 'w', 'quality': '2', 'quality_eyes': '2', 'quality_mouth': '3', 'quality_ears': '3', 'quality_hair': '3', 'quality_neck': '3', 'facial_hair': '0.0', 'notes': None, 'race_common': 'black', 'gender_common': 'man'}",,,,,,,,,,,,,,,,,,,,,,,,,,,,,,,,,,,,,,,,,,,,,,62635851a92cc565e302a7ee,62635315c2c7645fef78b5e6,5d3dfb9322ed840001722278
5442,6263593b06b19921fe99c5de,Chrome,,main_task,0.0,1.0,chris,"4/22/2022, 6:41:14 PM",pjd0b7zw3bepkgo6ol2s,0.0-94.0,pilot_prolific_no_filler,,,,,,,,1822.0,../stimuli/version1_gray_lm/id128_00C_C.png,205009.0,0.0,106.0,3.0,retrieval,,,,,,,,,,,,,,,,,,,,,,,091,oddity,man,128,"{'muct_id': '436', 'lighting': 'w', 'race_guess': 'b', 'gender_guess': 'm', 'quality': '3', 'quality_eyes': '3', 'quality_mouth': '3', 'quality_ears': '3', 'quality_hair': '3', 'quality_neck': '3', 'facial_hair': '3.0', 'notes': 'beard', 'race_common': 'black', 'gender_common': 'man'}",29,00C,C,black,11,old,00C,C,00C,0,,,,,,,,,,,,,,,,,,62635863c6ba26583dc286d3,62635315c2c7645fef78b5e5,5adeb4e9f6b58c0001fa70aa
5443,6263593b06b19921fe99c5df,Chrome,3.0,main_task,1.0,3.0,chris,"4/22/2022, 9:41:16 PM",t99a55ysjufz4nt2e8o5,0.0-24.0,pilot_prolific_no_filler,40,woman,109,2.0,white,25R,D,3345.0,"['../stimuli/version1_gray_lm/id018_50L_C.png', '../stimuli/version1_gray_lm/id018_00C_U.png', '../stimuli/version1_gray_lm/id109_25R_D.png']",486328.0,0.0,29.0,11.0,encoding,woman,018,"[0, 1]",white,"['50L', '00C']","['C', 'U']",,"{'muct_id': '401', 'lighting': 'w', 'race_guess': 'w', 'gender_guess': 'w', 'quality': '3', 'quality_eyes': '3', 'quality_mouth': '3', 'quality_ears': '3', 'quality_hair': '3', 'quality_neck': '3', 'facial_hair': '0.0', 'notes': 'mouth', 'race_common': 'white', 'gender_common': 'woman'}","{'muct_id': '21', 'lighting': 'q', 'race_guess': 'w', 'gender_guess': 'w', 'quality': '3', 'quality_eyes': '3', 'quality_mouth': '3', 'quality_ears': '3', 'quality_hair': '3', 'quality_neck': '3', 'facial_hair': '0.0', 'notes': None, 'race_common': 'white', 'gender_common': 'woman'}",,,,,,,,,,,,,,,,,,,,,,,,,,,,,,,,,,,,,,,,,,,,,,6263574769771ec497af678a,62635315c2c7645fef78b5e6,5ff7a8b2c0a7854b6ce5c375
5444,6263593d06b19921fe99c5e0,Chrome,3.0,main_task,1.0,3.0,chris,"4/22/2022, 9:41:17 PM",vhyawytblvotmo4hjf56,0.0-34.0,pilot_prolific_no_filler,40,man,118,2.0,black,00C,D,1674.0,"['../stimuli/version1_gray_lm/id081_25R_C.png', '../stimuli/version1_gray_lm/id081_25L_U.png', '../stimuli/version1_gray_lm/id118_00C_D.png']",130141.0,0.0,39.0,16.0,encoding,man,081,"[0, 1]",black,"['25R', '25L']","['C', 'U']",,"{'muct_id': '419', 'lighting': 'x', 'race_guess': 'b', 'gender_guess': 'm', 'quality': '3', 'quality_eyes': '3', 'quality_mouth': '3', 'quality_ears': '3', 'quality_hair': '3', 'quality_neck': '3', 'facial_hair': '1.0', 'notes': None, 'race_common': 'black', 'gender_common': 'man'}","{'muct_id': '241', 'lighting': 't', 'race_guess': 'u', 'gender_guess': 'm', 'quality': '3', 'quality_eyes': '3', 'quality_mouth': '3', 'quality_ears': '3', 'quality_hair': '3', 'quality_neck': '3', 'facial_hair': '1.0', 'notes': 'mouth', 'race_common': 'black', 'gender_common': 'man'}",,,,,,,,,,,,,,,,,,,,,,,,,,,,,,,,,,,,,,,,,,,,,,62635851a92cc565e302a7ee,62635315c2c7645fef78b5e6,5d3dfb9322ed840001722278
