,_id,browser,choice,collection,correct,correct_response,database,datetime,experiment_id,internal_node_id,iteration,key_press,oddity_gender,oddity_identity,oddity_index,oddity_race,oddity_tiltLR,oddity_tiltUD,rt,stimulus,time_elapsed,timed_out,trial_index,trial_number,trial_type,typicals_gender,typicals_identity,typicals_indices,typicals_race,typicals_tiltsLR,typicals_tiltsUD,practice_threshold_met,oddity_meta,typicals_meta,button_pressed,last_trial_type,prediction,choice_category,choice_object,oddity_category,oddity_name,oddity_type,stimulus_response_map,typical_category,typical_indices,typical_name,variation_level,encoding_pair,encoding_type,gender,identity,meta,original_index,original_tiltLR,original_tiltUD,race,response,retrieval_condition,tiltLR,tiltUD,tilt_change,tilt_difference,original_tilt,encoding_accuracy,encoding_avg_rt,encoding_n_trials,experimental_duration,filler_accuracy,filler_avg_rt,filler_n_trials,params,retrieval_accuracy,retrieval_avg_rt,retrieval_n_trials,total_bonus,total_payment,age,gender_other,latinx,session_id,study_id,subject_id
3533,625e17e2b06d664c87071f88,Chrome,3.0,main_task,1.0,3.0,chris,"4/18/2022, 10:01:06 PM",enpzcs5vx3nem871ak5w,0.0-2.0-0.0,pilot_prolific_repeat_encoding,40,man,107,2.0,latinx,00C,U,2933.0,"['../stimuli/version1_gray_lm/id106_50R_D.png', '../stimuli/version1_gray_lm/id106_50L_C.png', '../stimuli/version1_gray_lm/id107_00C_U.png']",80739.0,0.0,2.0,1.0,encoding_practice,woman,106,"[0, 1]",latinx,"['50R', '50L']","['D', 'C']",,,,,,,,,,,,,,,,,,,,,,,,,,,,,,,,,,,,,,,,,,,,,,,,,625e178456f03cd939f5b01d,625e15a9b58e919816fee4ea,5dcdd7bf324a3d0a6c24b608
3534,625e17e7b06d664c87071f89,Chrome,2.0,main_task,1.0,2.0,chris,"4/18/2022, 10:01:11 PM",enpzcs5vx3nem871ak5w,0.0-2.1-0.1,pilot_prolific_repeat_encoding,39,man,107,1.0,latinx,50R,D,2562.0,"['../stimuli/version1_gray_lm/id106_50L_C.png', '../stimuli/version1_gray_lm/id107_50R_D.png', '../stimuli/version1_gray_lm/id106_00C_U.png']",85784.0,0.0,4.0,2.0,encoding_practice,woman,106,"[0, 2]",latinx,"['50L', '00C']","['C', 'U']",,,,,,,,,,,,,,,,,,,,,,,,,,,,,,,,,,,,,,,,,,,,,,,,,625e178456f03cd939f5b01d,625e15a9b58e919816fee4ea,5dcdd7bf324a3d0a6c24b608
3535,625e17ecb06d664c87071f8a,Chrome,1.0,main_task,1.0,1.0,chris,"4/18/2022, 10:01:16 PM",enpzcs5vx3nem871ak5w,0.0-2.2-0.2,pilot_prolific_repeat_encoding,37,man,107,0.0,latinx,25L,C,3630.0,"['../stimuli/version1_gray_lm/id107_25L_C.png', '../stimuli/version1_gray_lm/id108_50R_D.png', '../stimuli/version1_gray_lm/id108_00C_U.png']",90688.0,0.0,6.0,3.0,encoding_practice,woman,108,"[1, 2]",latinx,"['50R', '00C']","['D', 'U']",1.0,,,,,,,,,,,,,,,,,,,,,,,,,,,,,,,,,,,,,,,,,,,,,,,,625e178456f03cd939f5b01d,625e15a9b58e919816fee4ea,5dcdd7bf324a3d0a6c24b608
3536,625e17f6b06d664c87071f8b,Chrome,3.0,main_task,1.0,3.0,chris,"4/18/2022, 10:01:26 PM",enpzcs5vx3nem871ak5w,0.0-4.0,pilot_prolific_repeat_encoding,40,woman,103,2.0,black,00C,D,4471.0,"['../stimuli/version1_gray_lm/id005_25R_C.png', '../stimuli/version1_gray_lm/id005_50L_U.png', '../stimuli/version1_gray_lm/id103_00C_D.png']",100936.0,0.0,9.0,1.0,encoding,woman,005,"[0, 1]",black,"['25R', '50L']","['C', 'U']",,"{'muct_id': '285', 'lighting': 'v', 'race_guess': 'b', 'gender_guess': 'w', 'quality': '3', 'quality_eyes': '3', 'quality_mouth': '3', 'quality_ears': '3', 'quality_hair': '3', 'quality_neck': '3', 'facial_hair': '0.0', 'notes': 'earrings', 'race_common': 'black', 'gender_common': 'woman'}","{'muct_id': '5', 'lighting': 'q', 'race_guess': 'b', 'gender_guess': 'w', 'quality': '3', 'quality_eyes': '3', 'quality_mouth': '3', 'quality_ears': '3', 'quality_hair': '3', 'quality_neck': '3', 'facial_hair': '0.0', 'notes': 'hat', 'race_common': 'black', 'gender_common': 'woman'}",,,,,,,,,,,,,,,,,,,,,,,,,,,,,,,,,,,,,,,,,,,,,,625e178456f03cd939f5b01d,625e15a9b58e919816fee4ea,5dcdd7bf324a3d0a6c24b608
3537,625e17fdb06d664c87071f8c,Chrome,2.0,main_task,1.0,2.0,chris,"4/18/2022, 10:01:33 PM",enpzcs5vx3nem871ak5w,0.0-6.0,pilot_prolific_repeat_encoding,39,woman,101,1.0,white,25R,U,5910.0,"['../stimuli/version1_gray_lm/id084_00C_D.png', '../stimuli/version1_gray_lm/id101_25R_U.png', '../stimuli/version1_gray_lm/id084_25L_C.png']",108241.0,0.0,11.0,2.0,encoding,woman,084,"[0, 2]",white,"['00C', '25L']","['D', 'C']",,"{'muct_id': '281', 'lighting': 't', 'race_guess': 'w', 'gender_guess': 'w', 'quality': '3', 'quality_eyes': '3', 'quality_mouth': '3', 'quality_ears': '3', 'quality_hair': '3', 'quality_neck': '3', 'facial_hair': '0.0', 'notes': None, 'race_common': 'white', 'gender_common': 'woman'}","{'muct_id': '248', 'lighting': 'u', 'race_guess': 'w', 'gender_guess': 'w', 'quality': '3', 'quality_eyes': '3', 'quality_mouth': '3', 'quality_ears': '3', 'quality_hair': '3', 'quality_neck': '3', 'facial_hair': '0.0', 'notes': None, 'race_common': 'white', 'gender_common': 'woman'}",,,,,,,,,,,,,,,,,,,,,,,,,,,,,,,,,,,,,,,,,,,,,,625e178456f03cd939f5b01d,625e15a9b58e919816fee4ea,5dcdd7bf324a3d0a6c24b608
3538,625e1804b06d664c87071f8d,Chrome,2.0,main_task,0.0,1.0,chris,"4/18/2022, 10:01:40 PM",enpzcs5vx3nem871ak5w,0.0-8.0,pilot_prolific_repeat_encoding,39,man,105,0.0,black,25R,C,5867.0,"['../stimuli/version1_gray_lm/id105_25R_C.png', '../stimuli/version1_gray_lm/id065_25L_D.png', '../stimuli/version1_gray_lm/id065_00C_U.png']",115010.0,0.0,13.0,3.0,encoding,man,065,"[1, 2]",black,"['25L', '00C']","['D', 'U']",,"{'muct_id': '290', 'lighting': 't', 'race_guess': 'b', 'gender_guess': 'm', 'quality': '3', 'quality_eyes': '3', 'quality_mouth': '3', 'quality_ears': '3', 'quality_hair': '3', 'quality_neck': '3', 'facial_hair': '2.0', 'notes': None, 'race_common': 'black', 'gender_common': 'man'}","{'muct_id': '206', 'lighting': 't', 'race_guess': 'b', 'gender_guess': 'm', 'quality': '3', 'quality_eyes': '3', 'quality_mouth': '3', 'quality_ears': '3', 'quality_hair': '3', 'quality_neck': '3', 'facial_hair': '1.0', 'notes': None, 'race_common': 'black', 'gender_common': 'man'}",,,,,,,,,,,,,,,,,,,,,,,,,,,,,,,,,,,,,,,,,,,,,,625e178456f03cd939f5b01d,625e15a9b58e919816fee4ea,5dcdd7bf324a3d0a6c24b608
3539,625e1808b06d664c87071f8e,Chrome,1.0,main_task,1.0,1.0,chris,"4/18/2022, 10:01:45 PM",enpzcs5vx3nem871ak5w,0.0-10.0,pilot_prolific_repeat_encoding,37,man,100,0.0,white,50L,U,3332.0,"['../stimuli/version1_gray_lm/id100_50L_U.png', '../stimuli/version1_gray_lm/id099_25R_D.png', '../stimuli/version1_gray_lm/id099_00C_C.png']",119398.0,0.0,15.0,4.0,encoding,man,099,"[1, 2]",white,"['25R', '00C']","['D', 'C']",,"{'muct_id': '280', 'lighting': 'u', 'race_guess': 'w', 'gender_guess': 'm', 'quality': '3', 'quality_eyes': '3', 'quality_mouth': '3', 'quality_ears': '3', 'quality_hair': '3', 'quality_neck': '3', 'facial_hair': '0.0', 'notes': None, 'race_common': 'white', 'gender_common': 'man'}","{'muct_id': '278', 'lighting': 't', 'race_guess': 'w', 'gender_guess': 'm', 'quality': '3', 'quality_eyes': '3', 'quality_mouth': '3', 'quality_ears': '3', 'quality_hair': '3', 'quality_neck': '3', 'facial_hair': '0.0', 'notes': None, 'race_common': 'white', 'gender_common': 'man'}",,,,,,,,,,,,,,,,,,,,,,,,,,,,,,,,,,,,,,,,,,,,,,625e178456f03cd939f5b01d,625e15a9b58e919816fee4ea,5dcdd7bf324a3d0a6c24b608
3540,625e1810b06d664c87071f8f,Chrome,3.0,main_task,0.0,1.0,chris,"4/18/2022, 10:01:52 PM",enpzcs5vx3nem871ak5w,0.0-12.0,pilot_prolific_repeat_encoding,40,man,112,0.0,black,25R,C,6385.0,"['../stimuli/version1_gray_lm/id112_25R_C.png', '../stimuli/version1_gray_lm/id056_00C_D.png', '../stimuli/version1_gray_lm/id056_50L_U.png']",126572.0,0.0,17.0,5.0,encoding,man,056,"[1, 2]",black,"['00C', '50L']","['D', 'U']",,"{'muct_id': '406', 'lighting': 'w', 'race_guess': 'b', 'gender_guess': 'm', 'quality': '3', 'quality_eyes': '3', 'quality_mouth': '3', 'quality_ears': '3', 'quality_hair': '3', 'quality_neck': '3', 'facial_hair': '1.0', 'notes': None, 'race_common': 'black', 'gender_common': 'man'}","{'muct_id': '82', 'lighting': 'q', 'race_guess': 'b', 'gender_guess': 'm', 'quality': '3', 'quality_eyes': '3', 'quality_mouth': '3', 'quality_ears': '3', 'quality_hair': '3', 'quality_neck': '3', 'facial_hair': '1.0', 'notes': None, 'race_common': 'black', 'gender_common': 'man'}",,,,,,,,,,,,,,,,,,,,,,,,,,,,,,,,,,,,,,,,,,,,,,625e178456f03cd939f5b01d,625e15a9b58e919816fee4ea,5dcdd7bf324a3d0a6c24b608
3541,625e1814b06d664c87071f90,Chrome,1.0,main_task,0.0,3.0,chris,"4/18/2022, 10:01:56 PM",enpzcs5vx3nem871ak5w,0.0-14.0,pilot_prolific_repeat_encoding,37,woman,102,2.0,white,25R,C,3312.0,"['../stimuli/version1_gray_lm/id007_00C_D.png', '../stimuli/version1_gray_lm/id007_25L_U.png', '../stimuli/version1_gray_lm/id102_25R_C.png']",130735.0,0.0,19.0,6.0,encoding,woman,007,"[0, 1]",white,"['00C', '25L']","['D', 'U']",,"{'muct_id': '283', 'lighting': 't', 'race_guess': 'i', 'gender_guess': 'w', 'quality': '3', 'quality_eyes': '3', 'quality_mouth': '3', 'quality_ears': '3', 'quality_hair': '3', 'quality_neck': '3', 'facial_hair': '0.0', 'notes': 'pottu', 'race_common': 'white', 'gender_common': 'woman'}","{'muct_id': '7', 'lighting': 's', 'race_guess': 'u', 'gender_guess': 'w', 'quality': '3', 'quality_eyes': '3', 'quality_mouth': '3', 'quality_ears': '3', 'quality_hair': '3', 'quality_neck': '3', 'facial_hair': '0.0', 'notes': None, 'race_common': 'white', 'gender_common': 'woman'}",,,,,,,,,,,,,,,,,,,,,,,,,,,,,,,,,,,,,,,,,,,,,,625e178456f03cd939f5b01d,625e15a9b58e919816fee4ea,5dcdd7bf324a3d0a6c24b608
3542,625e1818b06d664c87071f91,Chrome,2.0,main_task,1.0,2.0,chris,"4/18/2022, 10:02:00 PM",enpzcs5vx3nem871ak5w,0.0-16.0,pilot_prolific_repeat_encoding,39,man,104,1.0,white,50L,U,3121.0,"['../stimuli/version1_gray_lm/id012_25R_D.png', '../stimuli/version1_gray_lm/id104_50L_U.png', '../stimuli/version1_gray_lm/id012_00C_C.png']",134800.0,0.0,21.0,7.0,encoding,man,012,"[0, 2]",white,"['25R', '00C']","['D', 'C']",,"{'muct_id': '287', 'lighting': 't', 'race_guess': 'w', 'gender_guess': 'm', 'quality': '3', 'quality_eyes': '3', 'quality_mouth': '3', 'quality_ears': '3', 'quality_hair': '3', 'quality_neck': '3', 'facial_hair': '2.0', 'notes': None, 'race_common': 'white', 'gender_common': 'man'}","{'muct_id': '12', 'lighting': 'q', 'race_guess': 'i', 'gender_guess': 'm', 'quality': '3', 'quality_eyes': '3', 'quality_mouth': '3', 'quality_ears': '3', 'quality_hair': '3', 'quality_neck': '3', 'facial_hair': '2.0', 'notes': None, 'race_common': 'white', 'gender_common': 'man'}",,,,,,,,,,,,,,,,,,,,,,,,,,,,,,,,,,,,,,,,,,,,,,625e178456f03cd939f5b01d,625e15a9b58e919816fee4ea,5dcdd7bf324a3d0a6c24b608
3543,625e181eb06d664c87071f92,Chrome,3.0,main_task,1.0,3.0,chris,"4/18/2022, 10:02:06 PM",enpzcs5vx3nem871ak5w,0.0-18.0,pilot_prolific_repeat_encoding,40,woman,111,2.0,black,50R,C,4840.0,"['../stimuli/version1_gray_lm/id060_00C_D.png', '../stimuli/version1_gray_lm/id060_50L_U.png', '../stimuli/version1_gray_lm/id111_50R_C.png']",141040.0,0.0,23.0,8.0,encoding,woman,060,"[0, 1]",black,"['00C', '50L']","['D', 'U']",,"{'muct_id': '405', 'lighting': 'w', 'race_guess': 'b', 'gender_guess': 'w', 'quality': '3', 'quality_eyes': '3', 'quality_mouth': '3', 'quality_ears': '3', 'quality_hair': '3', 'quality_neck': '3', 'facial_hair': '0.0', 'notes': 'hair earrings', 'race_common': 'black', 'gender_common': 'woman'}","{'muct_id': '88', 'lighting': 'q', 'race_guess': 'b', 'gender_guess': 'w', 'quality': '3', 'quality_eyes': '3', 'quality_mouth': '3', 'quality_ears': '3', 'quality_hair': '3', 'quality_neck': '3', 'facial_hair': '0.0', 'notes': 'earrings', 'race_common': 'black', 'gender_common': 'woman'}",,,,,,,,,,,,,,,,,,,,,,,,,,,,,,,,,,,,,,,,,,,,,,625e178456f03cd939f5b01d,625e15a9b58e919816fee4ea,5dcdd7bf324a3d0a6c24b608
3544,625e1822b06d664c87071f93,Chrome,1.0,main_task,1.0,1.0,chris,"4/18/2022, 10:02:11 PM",enpzcs5vx3nem871ak5w,0.0-20.0,pilot_prolific_repeat_encoding,37,woman,114,0.0,white,50R,U,3356.0,"['../stimuli/version1_gray_lm/id114_50R_U.png', '../stimuli/version1_gray_lm/id088_00C_C.png', '../stimuli/version1_gray_lm/id088_25L_D.png']",145426.0,0.0,25.0,9.0,encoding,woman,088,"[1, 2]",white,"['00C', '25L']","['C', 'D']",,"{'muct_id': '410', 'lighting': 'w', 'race_guess': 'w', 'gender_guess': 'w', 'quality': '3', 'quality_eyes': '3', 'quality_mouth': '3', 'quality_ears': '3', 'quality_hair': '3', 'quality_neck': '3', 'facial_hair': '0.0', 'notes': 'makeup mouth', 'race_common': 'white', 'gender_common': 'woman'}","{'muct_id': '252', 'lighting': 't', 'race_guess': 'w', 'gender_guess': 'w', 'quality': '3', 'quality_eyes': '3', 'quality_mouth': '3', 'quality_ears': '3', 'quality_hair': '3', 'quality_neck': '3', 'facial_hair': '0.0', 'notes': 'hair', 'race_common': 'white', 'gender_common': 'woman'}",,,,,,,,,,,,,,,,,,,,,,,,,,,,,,,,,,,,,,,,,,,,,,625e178456f03cd939f5b01d,625e15a9b58e919816fee4ea,5dcdd7bf324a3d0a6c24b608
3545,625e1828b06d664c87071f94,Chrome,2.0,main_task,1.0,2.0,chris,"4/18/2022, 10:02:16 PM",enpzcs5vx3nem871ak5w,0.0-22.0,pilot_prolific_repeat_encoding,39,man,113,1.0,black,00C,U,4742.0,"['../stimuli/version1_gray_lm/id098_50R_C.png', '../stimuli/version1_gray_lm/id113_00C_U.png', '../stimuli/version1_gray_lm/id098_25L_D.png']",151088.0,0.0,27.0,10.0,encoding,man,098,"[0, 2]",black,"['50R', '25L']","['C', 'D']",,"{'muct_id': '407', 'lighting': 'x', 'race_guess': 'u', 'gender_guess': 'm', 'quality': '3', 'quality_eyes': '3', 'quality_mouth': '3', 'quality_ears': '3', 'quality_hair': '3', 'quality_neck': '3', 'facial_hair': '3.0', 'notes': 'beard', 'race_common': 'black', 'gender_common': 'man'}","{'muct_id': '274', 'lighting': 't', 'race_guess': 'b', 'gender_guess': 'm', 'quality': '3', 'quality_eyes': '3', 'quality_mouth': '3', 'quality_ears': '3', 'quality_hair': '3', 'quality_neck': '3', 'facial_hair': '4.0', 'notes': None, 'race_common': 'black', 'gender_common': 'man'}",,,,,,,,,,,,,,,,,,,,,,,,,,,,,,,,,,,,,,,,,,,,,,625e178456f03cd939f5b01d,625e15a9b58e919816fee4ea,5dcdd7bf324a3d0a6c24b608
3546,625e182db06d664c87071f95,Chrome,3.0,main_task,1.0,3.0,chris,"4/18/2022, 10:02:21 PM",enpzcs5vx3nem871ak5w,0.0-24.0,pilot_prolific_repeat_encoding,40,man,117,2.0,black,00C,C,3689.0,"['../stimuli/version1_gray_lm/id028_50R_D.png', '../stimuli/version1_gray_lm/id028_50L_U.png', '../stimuli/version1_gray_lm/id117_00C_C.png']",155584.0,0.0,29.0,11.0,encoding,man,028,"[0, 1]",black,"['50R', '50L']","['D', 'U']",,"{'muct_id': '417', 'lighting': 'w', 'race_guess': 'b', 'gender_guess': 'm', 'quality': '3', 'quality_eyes': '3', 'quality_mouth': '3', 'quality_ears': '3', 'quality_hair': '3', 'quality_neck': '3', 'facial_hair': '1.0', 'notes': 'mouth', 'race_common': 'black', 'gender_common': 'man'}","{'muct_id': '38', 'lighting': 'q', 'race_guess': 'b', 'gender_guess': 'm', 'quality': '3', 'quality_eyes': '3', 'quality_mouth': '3', 'quality_ears': '3', 'quality_hair': '3', 'quality_neck': '3', 'facial_hair': '2.0', 'notes': None, 'race_common': 'black', 'gender_common': 'man'}",,,,,,,,,,,,,,,,,,,,,,,,,,,,,,,,,,,,,,,,,,,,,,625e178456f03cd939f5b01d,625e15a9b58e919816fee4ea,5dcdd7bf324a3d0a6c24b608
3547,625e1832b06d664c87071f96,Chrome,2.0,main_task,1.0,2.0,chris,"4/18/2022, 10:02:26 PM",enpzcs5vx3nem871ak5w,0.0-26.0,pilot_prolific_repeat_encoding,39,woman,109,1.0,white,00C,D,4970.0,"['../stimuli/version1_gray_lm/id029_50R_C.png', '../stimuli/version1_gray_lm/id109_00C_D.png', '../stimuli/version1_gray_lm/id029_25L_U.png']",161158.0,0.0,31.0,12.0,encoding,woman,029,"[0, 2]",white,"['50R', '25L']","['C', 'U']",,"{'muct_id': '401', 'lighting': 'w', 'race_guess': 'w', 'gender_guess': 'w', 'quality': '3', 'quality_eyes': '3', 'quality_mouth': '3', 'quality_ears': '3', 'quality_hair': '3', 'quality_neck': '3', 'facial_hair': '0.0', 'notes': 'mouth', 'race_common': 'white', 'gender_common': 'woman'}","{'muct_id': '39', 'lighting': 'r', 'race_guess': 'w', 'gender_guess': 'w', 'quality': '3', 'quality_eyes': '3', 'quality_mouth': '3', 'quality_ears': '3', 'quality_hair': '3', 'quality_neck': '3', 'facial_hair': '0.0', 'notes': 'earrings hair', 'race_common': 'white', 'gender_common': 'woman'}",,,,,,,,,,,,,,,,,,,,,,,,,,,,,,,,,,,,,,,,,,,,,,625e178456f03cd939f5b01d,625e15a9b58e919816fee4ea,5dcdd7bf324a3d0a6c24b608
3548,625e183bb06d664c87071f97,Chrome,1.0,main_task,1.0,1.0,chris,"4/18/2022, 10:02:35 PM",enpzcs5vx3nem871ak5w,0.0-28.0,pilot_prolific_repeat_encoding,37,man,115,0.0,white,50L,C,8226.0,"['../stimuli/version1_gray_lm/id115_50L_C.png', '../stimuli/version1_gray_lm/id047_50R_D.png', '../stimuli/version1_gray_lm/id047_00C_U.png']",170089.0,0.0,33.0,13.0,encoding,man,047,"[1, 2]",white,"['50R', '00C']","['D', 'U']",,"{'muct_id': '412', 'lighting': 'x', 'race_guess': 'w', 'gender_guess': 'm', 'quality': '3', 'quality_eyes': '3', 'quality_mouth': '3', 'quality_ears': '3', 'quality_hair': '3', 'quality_neck': '3', 'facial_hair': '0.0', 'notes': None, 'race_common': 'white', 'gender_common': 'man'}","{'muct_id': '64', 'lighting': 'q', 'race_guess': 'w', 'gender_guess': 'm', 'quality': '3', 'quality_eyes': '3', 'quality_mouth': '3', 'quality_ears': '3', 'quality_hair': '3', 'quality_neck': '3', 'facial_hair': '0.0', 'notes': None, 'race_common': 'white', 'gender_common': 'man'}",,,,,,,,,,,,,,,,,,,,,,,,,,,,,,,,,,,,,,,,,,,,,,625e178456f03cd939f5b01d,625e15a9b58e919816fee4ea,5dcdd7bf324a3d0a6c24b608
3549,625e1842b06d664c87071f98,Chrome,1.0,main_task,1.0,1.0,chris,"4/18/2022, 10:02:43 PM",enpzcs5vx3nem871ak5w,0.0-30.0,pilot_prolific_repeat_encoding,37,man,118,0.0,black,25L,D,6471.0,"['../stimuli/version1_gray_lm/id118_25L_D.png', '../stimuli/version1_gray_lm/id057_00C_C.png', '../stimuli/version1_gray_lm/id057_25R_U.png']",177374.0,0.0,35.0,14.0,encoding,man,057,"[1, 2]",black,"['00C', '25R']","['C', 'U']",,"{'muct_id': '419', 'lighting': 'x', 'race_guess': 'b', 'gender_guess': 'm', 'quality': '3', 'quality_eyes': '3', 'quality_mouth': '3', 'quality_ears': '3', 'quality_hair': '3', 'quality_neck': '3', 'facial_hair': '1.0', 'notes': None, 'race_common': 'black', 'gender_common': 'man'}","{'muct_id': '83', 'lighting': 'r', 'race_guess': 'b', 'gender_guess': 'm', 'quality': '3', 'quality_eyes': '3', 'quality_mouth': '3', 'quality_ears': '3', 'quality_hair': '3', 'quality_neck': '3', 'facial_hair': '3.0', 'notes': None, 'race_common': 'black', 'gender_common': 'man'}",,,,,,,,,,,,,,,,,,,,,,,,,,,,,,,,,,,,,,,,,,,,,,625e178456f03cd939f5b01d,625e15a9b58e919816fee4ea,5dcdd7bf324a3d0a6c24b608
3550,625e1849b06d664c87071f99,Chrome,1.0,main_task,1.0,1.0,chris,"4/18/2022, 10:02:49 PM",enpzcs5vx3nem871ak5w,0.0-32.0,pilot_prolific_repeat_encoding,37,man,116,0.0,white,00C,C,6173.0,"['../stimuli/version1_gray_lm/id116_00C_C.png', '../stimuli/version1_gray_lm/id039_50L_D.png', '../stimuli/version1_gray_lm/id039_25R_U.png']",184236.0,0.0,37.0,15.0,encoding,man,039,"[1, 2]",white,"['50L', '25R']","['D', 'U']",,"{'muct_id': '414', 'lighting': 'w', 'race_guess': 'w', 'gender_guess': 'm', 'quality': '3', 'quality_eyes': '3', 'quality_mouth': '3', 'quality_ears': '3', 'quality_hair': '3', 'quality_neck': '3', 'facial_hair': '0.0', 'notes': None, 'race_common': 'white', 'gender_common': 'man'}","{'muct_id': '52', 'lighting': 'q', 'race_guess': 'w', 'gender_guess': 'm', 'quality': '3', 'quality_eyes': '3', 'quality_mouth': '3', 'quality_ears': '3', 'quality_hair': '3', 'quality_neck': '3', 'facial_hair': '0.0', 'notes': None, 'race_common': 'white', 'gender_common': 'man'}",,,,,,,,,,,,,,,,,,,,,,,,,,,,,,,,,,,,,,,,,,,,,,625e178456f03cd939f5b01d,625e15a9b58e919816fee4ea,5dcdd7bf324a3d0a6c24b608
3551,625e1851b06d664c87071f9a,Chrome,2.0,main_task,1.0,2.0,chris,"4/18/2022, 10:02:57 PM",enpzcs5vx3nem871ak5w,0.0-34.0,pilot_prolific_repeat_encoding,39,man,119,1.0,black,25R,U,6997.0,"['../stimuli/version1_gray_lm/id030_00C_C.png', '../stimuli/version1_gray_lm/id119_25R_U.png', '../stimuli/version1_gray_lm/id030_50L_D.png']",191890.0,0.0,39.0,16.0,encoding,man,030,"[0, 2]",black,"['00C', '50L']","['C', 'D']",,"{'muct_id': '420', 'lighting': 'w', 'race_guess': 'b', 'gender_guess': 'm', 'quality': '3', 'quality_eyes': '3', 'quality_mouth': '3', 'quality_ears': '3', 'quality_hair': '3', 'quality_neck': '3', 'facial_hair': '0.0', 'notes': None, 'race_common': 'black', 'gender_common': 'man'}","{'muct_id': '41', 'lighting': 'r', 'race_guess': 'b', 'gender_guess': 'm', 'quality': '3', 'quality_eyes': '3', 'quality_mouth': '3', 'quality_ears': '3', 'quality_hair': '3', 'quality_neck': '3', 'facial_hair': '0.0', 'notes': None, 'race_common': 'black', 'gender_common': 'man'}",,,,,,,,,,,,,,,,,,,,,,,,,,,,,,,,,,,,,,,,,,,,,,625e178456f03cd939f5b01d,625e15a9b58e919816fee4ea,5dcdd7bf324a3d0a6c24b608
3552,625e1855b06d664c87071f9b,Chrome,2.0,main_task,1.0,2.0,chris,"4/18/2022, 10:03:01 PM",enpzcs5vx3nem871ak5w,0.0-36.0,pilot_prolific_repeat_encoding,39,man,121,1.0,black,50R,U,3457.0,"['../stimuli/version1_gray_lm/id091_00C_D.png', '../stimuli/version1_gray_lm/id121_50R_U.png', '../stimuli/version1_gray_lm/id091_50L_C.png']",196147.0,0.0,41.0,17.0,encoding,man,091,"[0, 2]",black,"['00C', '50L']","['D', 'C']",,"{'muct_id': '423', 'lighting': 'w', 'race_guess': 'b', 'gender_guess': 'm', 'quality': '3', 'quality_eyes': '3', 'quality_mouth': '3', 'quality_ears': '3', 'quality_hair': '3', 'quality_neck': '3', 'facial_hair': '1.0', 'notes': None, 'race_common': 'black', 'gender_common': 'man'}","{'muct_id': '260', 'lighting': 't', 'race_guess': 'b', 'gender_guess': 'm', 'quality': '3', 'quality_eyes': '3', 'quality_mouth': '3', 'quality_ears': '3', 'quality_hair': '3', 'quality_neck': '3', 'facial_hair': '4.0', 'notes': 'beard', 'race_common': 'black', 'gender_common': 'man'}",,,,,,,,,,,,,,,,,,,,,,,,,,,,,,,,,,,,,,,,,,,,,,625e178456f03cd939f5b01d,625e15a9b58e919816fee4ea,5dcdd7bf324a3d0a6c24b608
3553,625e1858b06d664c87071f9c,Chrome,3.0,main_task,1.0,3.0,chris,"4/18/2022, 10:03:05 PM",enpzcs5vx3nem871ak5w,0.0-38.0,pilot_prolific_repeat_encoding,40,woman,125,2.0,white,25R,U,2703.0,"['../stimuli/version1_gray_lm/id017_00C_C.png', '../stimuli/version1_gray_lm/id017_25L_D.png', '../stimuli/version1_gray_lm/id125_25R_U.png']",199327.0,0.0,43.0,18.0,encoding,woman,017,"[0, 1]",white,"['00C', '25L']","['C', 'D']",,"{'muct_id': '433', 'lighting': 'x', 'race_guess': 'w', 'gender_guess': 'w', 'quality': '3', 'quality_eyes': '3', 'quality_mouth': '3', 'quality_ears': '3', 'quality_hair': '3', 'quality_neck': '3', 'facial_hair': '0.0', 'notes': None, 'race_common': 'white', 'gender_common': 'woman'}","{'muct_id': '19', 'lighting': 'r', 'race_guess': 'w', 'gender_guess': 'w', 'quality': '3', 'quality_eyes': '3', 'quality_mouth': '3', 'quality_ears': '3', 'quality_hair': '3', 'quality_neck': '3', 'facial_hair': '0.0', 'notes': None, 'race_common': 'white', 'gender_common': 'woman'}",,,,,,,,,,,,,,,,,,,,,,,,,,,,,,,,,,,,,,,,,,,,,,625e178456f03cd939f5b01d,625e15a9b58e919816fee4ea,5dcdd7bf324a3d0a6c24b608
3554,625e185eb06d664c87071f9d,Chrome,3.0,main_task,1.0,3.0,chris,"4/18/2022, 10:03:10 PM",enpzcs5vx3nem871ak5w,0.0-40.0,pilot_prolific_repeat_encoding,40,woman,120,2.0,black,00C,C,4776.0,"['../stimuli/version1_gray_lm/id142_25L_D.png', '../stimuli/version1_gray_lm/id142_50R_U.png', '../stimuli/version1_gray_lm/id120_00C_C.png']",204489.0,0.0,45.0,19.0,encoding,woman,142,"[0, 1]",black,"['25L', '50R']","['D', 'U']",,"{'muct_id': '421', 'lighting': 'x', 'race_guess': 'b', 'gender_guess': 'w', 'quality': '3', 'quality_eyes': '3', 'quality_mouth': '3', 'quality_ears': '3', 'quality_hair': '3', 'quality_neck': '3', 'facial_hair': '0.0', 'notes': None, 'race_common': 'black', 'gender_common': 'woman'}","{'muct_id': '87', 'lighting': 'r', 'race_guess': 'b', 'gender_guess': 'w', 'quality': '3', 'quality_eyes': '3', 'quality_mouth': '3', 'quality_ears': '3', 'quality_hair': '3', 'quality_neck': '3', 'facial_hair': '0.0', 'notes': 'earrings hair', 'race_common': 'black', 'gender_common': 'woman'}",,,,,,,,,,,,,,,,,,,,,,,,,,,,,,,,,,,,,,,,,,,,,,625e178456f03cd939f5b01d,625e15a9b58e919816fee4ea,5dcdd7bf324a3d0a6c24b608
3555,625e1861b06d664c87071f9e,Chrome,2.0,main_task,1.0,2.0,chris,"4/18/2022, 10:03:13 PM",enpzcs5vx3nem871ak5w,0.0-42.0,pilot_prolific_repeat_encoding,39,woman,123,1.0,white,50L,C,3239.0,"['../stimuli/version1_gray_lm/id054_25R_D.png', '../stimuli/version1_gray_lm/id123_50L_C.png', '../stimuli/version1_gray_lm/id054_00C_U.png']",208112.0,0.0,47.0,20.0,encoding,woman,054,"[0, 2]",white,"['25R', '00C']","['D', 'U']",,"{'muct_id': '76', 'lighting': 'q', 'race_guess': 'w', 'gender_guess': 'w', 'quality': '2', 'quality_eyes': '2', 'quality_mouth': '3', 'quality_ears': '2', 'quality_hair': '2', 'quality_neck': '3', 'facial_hair': '0.0', 'notes': 'hair', 'race_common': 'white', 'gender_common': 'woman'}","{'muct_id': '80', 'lighting': 's', 'race_guess': 'b', 'gender_guess': 'w', 'quality': '3', 'quality_eyes': '3', 'quality_mouth': '3', 'quality_ears': '3', 'quality_hair': '3', 'quality_neck': '3', 'facial_hair': '0.0', 'notes': 'earrings', 'race_common': 'white', 'gender_common': 'woman'}",,,,,,,,,,,,,,,,,,,,,,,,,,,,,,,,,,,,,,,,,,,,,,625e178456f03cd939f5b01d,625e15a9b58e919816fee4ea,5dcdd7bf324a3d0a6c24b608
3556,625e1866b06d664c87071f9f,Chrome,3.0,main_task,1.0,3.0,chris,"4/18/2022, 10:03:18 PM",enpzcs5vx3nem871ak5w,0.0-44.0,pilot_prolific_repeat_encoding,40,man,124,2.0,black,00C,U,4456.0,"['../stimuli/version1_gray_lm/id036_25R_D.png', '../stimuli/version1_gray_lm/id036_50L_C.png', '../stimuli/version1_gray_lm/id124_00C_U.png']",212876.0,0.0,49.0,21.0,encoding,man,036,"[0, 1]",black,"['25R', '50L']","['D', 'C']",,"{'muct_id': '431', 'lighting': 'x', 'race_guess': 'b', 'gender_guess': 'u', 'quality': '3', 'quality_eyes': '3', 'quality_mouth': '3', 'quality_ears': '3', 'quality_hair': '3', 'quality_neck': '3', 'facial_hair': '0.0', 'notes': 'mouth', 'race_common': 'black', 'gender_common': 'man'}","{'muct_id': '47', 'lighting': 'q', 'race_guess': 'b', 'gender_guess': 'u', 'quality': '3', 'quality_eyes': '3', 'quality_mouth': '3', 'quality_ears': '3', 'quality_hair': '3', 'quality_neck': '3', 'facial_hair': '0.0', 'notes': None, 'race_common': 'black', 'gender_common': 'man'}",,,,,,,,,,,,,,,,,,,,,,,,,,,,,,,,,,,,,,,,,,,,,,625e178456f03cd939f5b01d,625e15a9b58e919816fee4ea,5dcdd7bf324a3d0a6c24b608
3557,625e186ab06d664c87071fa0,Chrome,1.0,main_task,1.0,1.0,chris,"4/18/2022, 10:03:22 PM",enpzcs5vx3nem871ak5w,0.0-46.0,pilot_prolific_repeat_encoding,37,woman,141,0.0,white,25R,U,3632.0,"['../stimuli/version1_gray_lm/id141_25R_U.png', '../stimuli/version1_gray_lm/id031_25L_D.png', '../stimuli/version1_gray_lm/id031_00C_C.png']",216809.0,0.0,51.0,22.0,encoding,woman,031,"[1, 2]",white,"['25L', '00C']","['D', 'C']",,"{'muct_id': '77', 'lighting': 's', 'race_guess': 'w', 'gender_guess': 'w', 'quality': '3', 'quality_eyes': '3', 'quality_mouth': '3', 'quality_ears': '3', 'quality_hair': '3', 'quality_neck': '3', 'facial_hair': '0.0', 'notes': None, 'race_common': 'white', 'gender_common': 'woman'}","{'muct_id': '42', 'lighting': 'q', 'race_guess': 'u', 'gender_guess': 'w', 'quality': '2', 'quality_eyes': '3', 'quality_mouth': '3', 'quality_ears': '2', 'quality_hair': '3', 'quality_neck': '3', 'facial_hair': '0.0', 'notes': 'mouth', 'race_common': 'white', 'gender_common': 'woman'}",,,,,,,,,,,,,,,,,,,,,,,,,,,,,,,,,,,,,,,,,,,,,,625e178456f03cd939f5b01d,625e15a9b58e919816fee4ea,5dcdd7bf324a3d0a6c24b608
3558,625e1871b06d664c87071fa1,Chrome,2.0,main_task,0.0,3.0,chris,"4/18/2022, 10:03:29 PM",enpzcs5vx3nem871ak5w,0.0-48.0,pilot_prolific_repeat_encoding,39,man,143,2.0,white,50L,C,6156.0,"['../stimuli/version1_gray_lm/id073_50R_U.png', '../stimuli/version1_gray_lm/id073_00C_D.png', '../stimuli/version1_gray_lm/id143_50L_C.png']",223572.0,0.0,53.0,23.0,encoding,man,073,"[0, 1]",white,"['50R', '00C']","['U', 'D']",,"{'muct_id': '90', 'lighting': 'q', 'race_guess': 'u', 'gender_guess': 'm', 'quality': '2', 'quality_eyes': '3', 'quality_mouth': '3', 'quality_ears': '2', 'quality_hair': '3', 'quality_neck': '3', 'facial_hair': '4.0', 'notes': 'beard', 'race_common': 'white', 'gender_common': 'man'}","{'muct_id': '225', 'lighting': 'u', 'race_guess': 'w', 'gender_guess': 'm', 'quality': '3', 'quality_eyes': '3', 'quality_mouth': '3', 'quality_ears': '3', 'quality_hair': '3', 'quality_neck': '3', 'facial_hair': '2.0', 'notes': None, 'race_common': 'white', 'gender_common': 'man'}",,,,,,,,,,,,,,,,,,,,,,,,,,,,,,,,,,,,,,,,,,,,,,625e178456f03cd939f5b01d,625e15a9b58e919816fee4ea,5dcdd7bf324a3d0a6c24b608
3559,625e1873b06d664c87071fa2,Chrome,2.0,main_task,1.0,2.0,chris,"4/18/2022, 10:03:32 PM",enpzcs5vx3nem871ak5w,0.0-50.0,pilot_prolific_repeat_encoding,39,man,122,1.0,black,50R,D,2315.0,"['../stimuli/version1_gray_lm/id058_00C_U.png', '../stimuli/version1_gray_lm/id122_50R_D.png', '../stimuli/version1_gray_lm/id058_50L_C.png']",226356.0,0.0,55.0,24.0,encoding,man,058,"[0, 2]",black,"['00C', '50L']","['U', 'C']",,"{'muct_id': '425', 'lighting': 'x', 'race_guess': 'b', 'gender_guess': 'm', 'quality': '3', 'quality_eyes': '3', 'quality_mouth': '3', 'quality_ears': '3', 'quality_hair': '3', 'quality_neck': '3', 'facial_hair': '2.0', 'notes': None, 'race_common': 'black', 'gender_common': 'man'}","{'muct_id': '84', 'lighting': 'q', 'race_guess': 'b', 'gender_guess': 'm', 'quality': '2', 'quality_eyes': '2', 'quality_mouth': '3', 'quality_ears': '3', 'quality_hair': '3', 'quality_neck': '3', 'facial_hair': '3.0', 'notes': 'beard', 'race_common': 'black', 'gender_common': 'man'}",,,,,,,,,,,,,,,,,,,,,,,,,,,,,,,,,,,,,,,,,,,,,,625e178456f03cd939f5b01d,625e15a9b58e919816fee4ea,5dcdd7bf324a3d0a6c24b608
3560,625e1877b06d664c87071fa3,Chrome,2.0,main_task,1.0,2.0,chris,"4/18/2022, 10:03:35 PM",enpzcs5vx3nem871ak5w,0.0-52.0,pilot_prolific_repeat_encoding,39,woman,126,1.0,black,25L,U,2843.0,"['../stimuli/version1_gray_lm/id059_25R_C.png', '../stimuli/version1_gray_lm/id126_25L_U.png', '../stimuli/version1_gray_lm/id059_00C_D.png']",229829.0,0.0,57.0,25.0,encoding,woman,059,"[0, 2]",black,"['25R', '00C']","['C', 'D']",,"{'muct_id': '434', 'lighting': 'w', 'race_guess': 'b', 'gender_guess': 'w', 'quality': '3', 'quality_eyes': '3', 'quality_mouth': '3', 'quality_ears': '3', 'quality_hair': '3', 'quality_neck': '3', 'facial_hair': '0.0', 'notes': 'earrings', 'race_common': 'black', 'gender_common': 'woman'}","{'muct_id': '86', 'lighting': 'q', 'race_guess': 'b', 'gender_guess': 'w', 'quality': '3', 'quality_eyes': '3', 'quality_mouth': '3', 'quality_ears': '3', 'quality_hair': '3', 'quality_neck': '3', 'facial_hair': '0.0', 'notes': 'earrings', 'race_common': 'black', 'gender_common': 'woman'}",,,,,,,,,,,,,,,,,,,,,,,,,,,,,,,,,,,,,,,,,,,,,,625e178456f03cd939f5b01d,625e15a9b58e919816fee4ea,5dcdd7bf324a3d0a6c24b608
3561,625e187bb06d664c87071fa4,Chrome,2.0,main_task,1.0,2.0,chris,"4/18/2022, 10:03:39 PM",enpzcs5vx3nem871ak5w,0.0-54.0,pilot_prolific_repeat_encoding,39,woman,127,1.0,black,25R,U,3728.0,"['../stimuli/version1_gray_lm/id016_25L_C.png', '../stimuli/version1_gray_lm/id127_25R_U.png', '../stimuli/version1_gray_lm/id016_00C_D.png']",234018.0,0.0,59.0,26.0,encoding,woman,016,"[0, 2]",black,"['25L', '00C']","['C', 'D']",,"{'muct_id': '435', 'lighting': 'x', 'race_guess': 'b', 'gender_guess': 'w', 'quality': '3', 'quality_eyes': '3', 'quality_mouth': '3', 'quality_ears': '3', 'quality_hair': '3', 'quality_neck': '3', 'facial_hair': '0.0', 'notes': 'bandana', 'race_common': 'black', 'gender_common': 'woman'}","{'muct_id': '18', 'lighting': 'q', 'race_guess': 'b', 'gender_guess': 'w', 'quality': '3', 'quality_eyes': '3', 'quality_mouth': '3', 'quality_ears': '3', 'quality_hair': '3', 'quality_neck': '3', 'facial_hair': '0.0', 'notes': 'earrings', 'race_common': 'black', 'gender_common': 'woman'}",,,,,,,,,,,,,,,,,,,,,,,,,,,,,,,,,,,,,,,,,,,,,,625e178456f03cd939f5b01d,625e15a9b58e919816fee4ea,5dcdd7bf324a3d0a6c24b608
3562,625e187fb06d664c87071fa5,Chrome,3.0,main_task,1.0,3.0,chris,"4/18/2022, 10:03:44 PM",enpzcs5vx3nem871ak5w,0.0-56.0,pilot_prolific_repeat_encoding,40,man,145,2.0,white,50R,C,4056.0,"['../stimuli/version1_gray_lm/id080_25L_D.png', '../stimuli/version1_gray_lm/id080_00C_U.png', '../stimuli/version1_gray_lm/id145_50R_C.png']",238395.0,0.0,61.0,27.0,encoding,man,080,"[0, 1]",white,"['25L', '00C']","['D', 'U']",,"{'muct_id': '230', 'lighting': 'u', 'race_guess': 'w', 'gender_guess': 'm', 'quality': '3', 'quality_eyes': '3', 'quality_mouth': '3', 'quality_ears': '3', 'quality_hair': '3', 'quality_neck': '3', 'facial_hair': '0.0', 'notes': 'hair', 'race_common': 'white', 'gender_common': 'man'}","{'muct_id': '240', 'lighting': 'u', 'race_guess': 'w', 'gender_guess': 'm', 'quality': '3', 'quality_eyes': '3', 'quality_mouth': '3', 'quality_ears': '3', 'quality_hair': '3', 'quality_neck': '3', 'facial_hair': '0.0', 'notes': 'mouth', 'race_common': 'white', 'gender_common': 'man'}",,,,,,,,,,,,,,,,,,,,,,,,,,,,,,,,,,,,,,,,,,,,,,625e178456f03cd939f5b01d,625e15a9b58e919816fee4ea,5dcdd7bf324a3d0a6c24b608
3563,625e1885b06d664c87071fa6,Chrome,2.0,main_task,1.0,2.0,chris,"4/18/2022, 10:03:49 PM",enpzcs5vx3nem871ak5w,0.0-58.0,pilot_prolific_repeat_encoding,39,man,146,1.0,white,00C,C,5463.0,"['../stimuli/version1_gray_lm/id092_50L_U.png', '../stimuli/version1_gray_lm/id146_00C_C.png', '../stimuli/version1_gray_lm/id092_25R_D.png']",244180.0,0.0,63.0,28.0,encoding,man,092,"[0, 2]",white,"['50L', '25R']","['U', 'D']",,"{'muct_id': '254', 'lighting': 'v', 'race_guess': 'w', 'gender_guess': 'm', 'quality': '2', 'quality_eyes': '2', 'quality_mouth': '3', 'quality_ears': '3', 'quality_hair': '2', 'quality_neck': '3', 'facial_hair': '0.0', 'notes': 'hair', 'race_common': 'white', 'gender_common': 'man'}","{'muct_id': '261', 'lighting': 'v', 'race_guess': 'w', 'gender_guess': 'm', 'quality': '2', 'quality_eyes': '2', 'quality_mouth': '3', 'quality_ears': '3', 'quality_hair': '3', 'quality_neck': '3', 'facial_hair': '0.0', 'notes': None, 'race_common': 'white', 'gender_common': 'man'}",,,,,,,,,,,,,,,,,,,,,,,,,,,,,,,,,,,,,,,,,,,,,,625e178456f03cd939f5b01d,625e15a9b58e919816fee4ea,5dcdd7bf324a3d0a6c24b608
3564,625e1888b06d664c87071fa7,Chrome,2.0,main_task,1.0,2.0,chris,"4/18/2022, 10:03:52 PM",enpzcs5vx3nem871ak5w,0.0-60.0,pilot_prolific_repeat_encoding,39,man,132,1.0,black,00C,U,2548.0,"['../stimuli/version1_gray_lm/id064_25L_D.png', '../stimuli/version1_gray_lm/id132_00C_U.png', '../stimuli/version1_gray_lm/id064_50R_C.png']",247286.0,0.0,65.0,29.0,encoding,man,064,"[0, 2]",black,"['25L', '50R']","['D', 'C']",,"{'muct_id': '450', 'lighting': 'w', 'race_guess': 'b', 'gender_guess': 'm', 'quality': '3', 'quality_eyes': '3', 'quality_mouth': '3', 'quality_ears': '3', 'quality_hair': '3', 'quality_neck': '3', 'facial_hair': '4.0', 'notes': 'mouth', 'race_common': 'black', 'gender_common': 'man'}","{'muct_id': '204', 'lighting': 't', 'race_guess': 'b', 'gender_guess': 'm', 'quality': '3', 'quality_eyes': '3', 'quality_mouth': '3', 'quality_ears': '3', 'quality_hair': '3', 'quality_neck': '3', 'facial_hair': '1.0', 'notes': None, 'race_common': 'black', 'gender_common': 'man'}",,,,,,,,,,,,,,,,,,,,,,,,,,,,,,,,,,,,,,,,,,,,,,625e178456f03cd939f5b01d,625e15a9b58e919816fee4ea,5dcdd7bf324a3d0a6c24b608
3565,625e188db06d664c87071fa8,Chrome,1.0,main_task,1.0,1.0,chris,"4/18/2022, 10:03:57 PM",enpzcs5vx3nem871ak5w,0.0-62.0,pilot_prolific_repeat_encoding,37,woman,148,0.0,white,50R,U,4541.0,"['../stimuli/version1_gray_lm/id148_50R_U.png', '../stimuli/version1_gray_lm/id013_00C_C.png', '../stimuli/version1_gray_lm/id013_50L_D.png']",252134.0,0.0,67.0,30.0,encoding,woman,013,"[1, 2]",white,"['00C', '50L']","['C', 'D']",,"{'muct_id': '415', 'lighting': 'w', 'race_guess': 'w', 'gender_guess': 'w', 'quality': '3', 'quality_eyes': '3', 'quality_mouth': '3', 'quality_ears': '3', 'quality_hair': '3', 'quality_neck': '3', 'facial_hair': '0.0', 'notes': None, 'race_common': 'white', 'gender_common': 'woman'}","{'muct_id': '14', 'lighting': 'q', 'race_guess': 'w', 'gender_guess': 'w', 'quality': '3', 'quality_eyes': '3', 'quality_mouth': '3', 'quality_ears': '3', 'quality_hair': '3', 'quality_neck': '3', 'facial_hair': '0.0', 'notes': None, 'race_common': 'white', 'gender_common': 'woman'}",,,,,,,,,,,,,,,,,,,,,,,,,,,,,,,,,,,,,,,,,,,,,,625e178456f03cd939f5b01d,625e15a9b58e919816fee4ea,5dcdd7bf324a3d0a6c24b608
3566,625e1890b06d664c87071fa9,Chrome,2.0,main_task,1.0,2.0,chris,"4/18/2022, 10:04:00 PM",enpzcs5vx3nem871ak5w,0.0-64.0,pilot_prolific_repeat_encoding,39,man,149,1.0,white,25R,U,2197.0,"['../stimuli/version1_gray_lm/id052_00C_D.png', '../stimuli/version1_gray_lm/id149_25R_U.png', '../stimuli/version1_gray_lm/id052_25L_C.png']",254609.0,0.0,69.0,31.0,encoding,man,052,"[0, 2]",white,"['00C', '25L']","['D', 'C']",,"{'muct_id': '416', 'lighting': 'w', 'race_guess': 'w', 'gender_guess': 'm', 'quality': '3', 'quality_eyes': '3', 'quality_mouth': '3', 'quality_ears': '3', 'quality_hair': '3', 'quality_neck': '3', 'facial_hair': '2.0', 'notes': None, 'race_common': 'white', 'gender_common': 'man'}","{'muct_id': '75', 'lighting': 'q', 'race_guess': 'w', 'gender_guess': 'm', 'quality': '3', 'quality_eyes': '3', 'quality_mouth': '3', 'quality_ears': '3', 'quality_hair': '3', 'quality_neck': '3', 'facial_hair': '4.0', 'notes': 'beard', 'race_common': 'white', 'gender_common': 'man'}",,,,,,,,,,,,,,,,,,,,,,,,,,,,,,,,,,,,,,,,,,,,,,625e178456f03cd939f5b01d,625e15a9b58e919816fee4ea,5dcdd7bf324a3d0a6c24b608
3567,625e1896b06d664c87071faa,Chrome,1.0,main_task,1.0,1.0,chris,"4/18/2022, 10:04:06 PM",enpzcs5vx3nem871ak5w,0.0-66.0,pilot_prolific_repeat_encoding,37,man,128,0.0,black,50R,D,5354.0,"['../stimuli/version1_gray_lm/id128_50R_D.png', '../stimuli/version1_gray_lm/id040_25L_C.png', '../stimuli/version1_gray_lm/id040_00C_U.png']",260476.0,0.0,71.0,32.0,encoding,man,040,"[1, 2]",black,"['25L', '00C']","['C', 'U']",,"{'muct_id': '436', 'lighting': 'w', 'race_guess': 'b', 'gender_guess': 'm', 'quality': '3', 'quality_eyes': '3', 'quality_mouth': '3', 'quality_ears': '3', 'quality_hair': '3', 'quality_neck': '3', 'facial_hair': '3.0', 'notes': 'beard', 'race_common': 'black', 'gender_common': 'man'}","{'muct_id': '55', 'lighting': 'r', 'race_guess': 'b', 'gender_guess': 'm', 'quality': '3', 'quality_eyes': '3', 'quality_mouth': '3', 'quality_ears': '3', 'quality_hair': '3', 'quality_neck': '3', 'facial_hair': '3.0', 'notes': 'beard', 'race_common': 'black', 'gender_common': 'man'}",,,,,,,,,,,,,,,,,,,,,,,,,,,,,,,,,,,,,,,,,,,,,,625e178456f03cd939f5b01d,625e15a9b58e919816fee4ea,5dcdd7bf324a3d0a6c24b608
3568,625e189db06d664c87071fab,Chrome,3.0,main_task,1.0,3.0,chris,"4/18/2022, 10:04:13 PM",enpzcs5vx3nem871ak5w,0.0-68.0,pilot_prolific_repeat_encoding,40,woman,133,2.0,black,50L,D,6706.0,"['../stimuli/version1_gray_lm/id140_25R_C.png', '../stimuli/version1_gray_lm/id140_00C_U.png', '../stimuli/version1_gray_lm/id133_50L_D.png']",267644.0,0.0,73.0,33.0,encoding,woman,140,"[0, 1]",black,"['25R', '00C']","['C', 'U']",,"{'muct_id': '601', 'lighting': 'y', 'race_guess': 'b', 'gender_guess': 'w', 'quality': '3', 'quality_eyes': '3', 'quality_mouth': '3', 'quality_ears': '3', 'quality_hair': '3', 'quality_neck': '3', 'facial_hair': '0.0', 'notes': 'mouth', 'race_common': 'black', 'gender_common': 'woman'}","{'muct_id': '624', 'lighting': 'y', 'race_guess': 'b', 'gender_guess': 'w', 'quality': '3', 'quality_eyes': '3', 'quality_mouth': '3', 'quality_ears': '3', 'quality_hair': '3', 'quality_neck': '3', 'facial_hair': '0.0', 'notes': 'headband, earring', 'race_common': 'black', 'gender_common': 'woman'}",,,,,,,,,,,,,,,,,,,,,,,,,,,,,,,,,,,,,,,,,,,,,,625e178456f03cd939f5b01d,625e15a9b58e919816fee4ea,5dcdd7bf324a3d0a6c24b608
3569,625e18a2b06d664c87071fac,Chrome,1.0,main_task,1.0,1.0,chris,"4/18/2022, 10:04:18 PM",enpzcs5vx3nem871ak5w,0.0-70.0,pilot_prolific_repeat_encoding,37,woman,151,0.0,white,00C,C,4419.0,"['../stimuli/version1_gray_lm/id151_00C_C.png', '../stimuli/version1_gray_lm/id018_50L_U.png', '../stimuli/version1_gray_lm/id018_50R_D.png']",272544.0,0.0,75.0,34.0,encoding,woman,018,"[1, 2]",white,"['50L', '50R']","['U', 'D']",,"{'muct_id': '444', 'lighting': 'w', 'race_guess': 'w', 'gender_guess': 'w', 'quality': '3', 'quality_eyes': '3', 'quality_mouth': '3', 'quality_ears': '3', 'quality_hair': '3', 'quality_neck': '3', 'facial_hair': '0.0', 'notes': None, 'race_common': 'white', 'gender_common': 'woman'}","{'muct_id': '21', 'lighting': 'q', 'race_guess': 'w', 'gender_guess': 'w', 'quality': '3', 'quality_eyes': '3', 'quality_mouth': '3', 'quality_ears': '3', 'quality_hair': '3', 'quality_neck': '3', 'facial_hair': '0.0', 'notes': None, 'race_common': 'white', 'gender_common': 'woman'}",,,,,,,,,,,,,,,,,,,,,,,,,,,,,,,,,,,,,,,,,,,,,,625e178456f03cd939f5b01d,625e15a9b58e919816fee4ea,5dcdd7bf324a3d0a6c24b608
3570,625e18a3b06d664c87071fad,Chrome,1.0,main_task,1.0,1.0,chris,"4/18/2022, 7:04:19 PM",5f5jdok8y0hcbo83uolj,0.0-2.0-0.0,pilot_prolific_repeat_encoding,37,woman,106,0.0,latinx,50L,D,2132.0,"['../stimuli/version1_gray_lm/id106_50L_D.png', '../stimuli/version1_gray_lm/id107_00C_U.png', '../stimuli/version1_gray_lm/id107_50R_C.png']",61400.0,0.0,2.0,1.0,encoding_practice,man,107,"[1, 2]",latinx,"['00C', '50R']","['U', 'C']",,,,,,,,,,,,,,,,,,,,,,,,,,,,,,,,,,,,,,,,,,,,,,,,,625e185c4919524159d3b71e,625e15a9b58e919816fee4eb,6111933f9eec6b3f262f01b7
3571,625e18a6b06d664c87071fae,Chrome,3.0,main_task,1.0,3.0,chris,"4/18/2022, 7:04:22 PM",5f5jdok8y0hcbo83uolj,0.0-2.1-0.1,pilot_prolific_repeat_encoding,40,man,107,2.0,latinx,00C,U,1165.0,"['../stimuli/version1_gray_lm/id106_50R_C.png', '../stimuli/version1_gray_lm/id106_50L_D.png', '../stimuli/version1_gray_lm/id107_00C_U.png']",64498.0,0.0,4.0,2.0,encoding_practice,woman,106,"[0, 1]",latinx,"['50R', '50L']","['C', 'D']",,,,,,,,,,,,,,,,,,,,,,,,,,,,,,,,,,,,,,,,,,,,,,,,,625e185c4919524159d3b71e,625e15a9b58e919816fee4eb,6111933f9eec6b3f262f01b7
3572,625e18a9b06d664c87071faf,Chrome,1.0,main_task,1.0,1.0,chris,"4/18/2022, 7:04:25 PM",5f5jdok8y0hcbo83uolj,0.0-2.2-0.2,pilot_prolific_repeat_encoding,37,woman,106,0.0,latinx,00C,U,1862.0,"['../stimuli/version1_gray_lm/id106_00C_U.png', '../stimuli/version1_gray_lm/id107_25R_C.png', '../stimuli/version1_gray_lm/id107_25L_D.png']",67776.0,0.0,6.0,3.0,encoding_practice,man,107,"[1, 2]",latinx,"['25R', '25L']","['C', 'D']",1.0,,,,,,,,,,,,,,,,,,,,,,,,,,,,,,,,,,,,,,,,,,,,,,,,625e185c4919524159d3b71e,625e15a9b58e919816fee4eb,6111933f9eec6b3f262f01b7
3573,625e18acb06d664c87071fb0,Chrome,,main_task,0.0,1.0,chris,"4/18/2022, 10:04:28 PM",enpzcs5vx3nem871ak5w,0.0-72.0,pilot_prolific_repeat_encoding,,woman,136,0.0,black,25L,D,0.0,"['../stimuli/version1_gray_lm/id136_25L_D.png', '../stimuli/version1_gray_lm/id035_00C_C.png', '../stimuli/version1_gray_lm/id035_50R_U.png']",283115.0,1.0,77.0,35.0,encoding,woman,035,"[1, 2]",black,"['00C', '50R']","['C', 'U']",,"{'muct_id': '616', 'lighting': 'y', 'race_guess': 'b', 'gender_guess': 'w', 'quality': '3', 'quality_eyes': '3', 'quality_mouth': '3', 'quality_ears': '3', 'quality_hair': '3', 'quality_neck': '3', 'facial_hair': '0.0', 'notes': 'earrings', 'race_common': 'black', 'gender_common': 'woman'}","{'muct_id': '46', 'lighting': 'q', 'race_guess': 'b', 'gender_guess': 'w', 'quality': '3', 'quality_eyes': '3', 'quality_mouth': '3', 'quality_ears': '3', 'quality_hair': '3', 'quality_neck': '3', 'facial_hair': '0.0', 'notes': 'earrings', 'race_common': 'black', 'gender_common': 'woman'}",,,,,,,,,,,,,,,,,,,,,,,,,,,,,,,,,,,,,,,,,,,,,,625e178456f03cd939f5b01d,625e15a9b58e919816fee4ea,5dcdd7bf324a3d0a6c24b608
3574,625e18b1b06d664c87071fb1,Chrome,2.0,main_task,1.0,2.0,chris,"4/18/2022, 10:04:33 PM",enpzcs5vx3nem871ak5w,0.0-74.0,pilot_prolific_repeat_encoding,39,woman,152,1.0,white,00C,U,4048.0,"['../stimuli/version1_gray_lm/id051_25L_D.png', '../stimuli/version1_gray_lm/id152_00C_U.png', '../stimuli/version1_gray_lm/id051_25R_C.png']",287999.0,0.0,79.0,36.0,encoding,woman,051,"[0, 2]",white,"['25L', '25R']","['D', 'C']",,"{'muct_id': '446', 'lighting': 'w', 'race_guess': 'w', 'gender_guess': 'w', 'quality': '3', 'quality_eyes': '3', 'quality_mouth': '3', 'quality_ears': '3', 'quality_hair': '3', 'quality_neck': '3', 'facial_hair': '0.0', 'notes': None, 'race_common': 'white', 'gender_common': 'woman'}","{'muct_id': '74', 'lighting': 'q', 'race_guess': 'w', 'gender_guess': 'w', 'quality': '3', 'quality_eyes': '3', 'quality_mouth': '3', 'quality_ears': '3', 'quality_hair': '3', 'quality_neck': '3', 'facial_hair': '0.0', 'notes': None, 'race_common': 'white', 'gender_common': 'woman'}",,,,,,,,,,,,,,,,,,,,,,,,,,,,,,,,,,,,,,,,,,,,,,625e178456f03cd939f5b01d,625e15a9b58e919816fee4ea,5dcdd7bf324a3d0a6c24b608
3575,625e18b1b06d664c87071fb2,Chrome,2.0,main_task,1.0,2.0,chris,"4/18/2022, 7:04:33 PM",5f5jdok8y0hcbo83uolj,0.0-4.0,pilot_prolific_repeat_encoding,39,man,100,1.0,white,25L,C,1551.0,"['../stimuli/version1_gray_lm/id094_00C_U.png', '../stimuli/version1_gray_lm/id100_25L_C.png', '../stimuli/version1_gray_lm/id094_50R_D.png']",76075.0,0.0,9.0,1.0,encoding,man,094,"[0, 2]",white,"['00C', '50R']","['U', 'D']",,"{'muct_id': '280', 'lighting': 'u', 'race_guess': 'w', 'gender_guess': 'm', 'quality': '3', 'quality_eyes': '3', 'quality_mouth': '3', 'quality_ears': '3', 'quality_hair': '3', 'quality_neck': '3', 'facial_hair': '0.0', 'notes': None, 'race_common': 'white', 'gender_common': 'man'}","{'muct_id': '264', 'lighting': 't', 'race_guess': 'w', 'gender_guess': 'm', 'quality': '3', 'quality_eyes': '3', 'quality_mouth': '3', 'quality_ears': '3', 'quality_hair': '3', 'quality_neck': '3', 'facial_hair': '0.0', 'notes': None, 'race_common': 'white', 'gender_common': 'man'}",,,,,,,,,,,,,,,,,,,,,,,,,,,,,,,,,,,,,,,,,,,,,,625e185c4919524159d3b71e,625e15a9b58e919816fee4eb,6111933f9eec6b3f262f01b7
3576,625e18b5b06d664c87071fb3,Chrome,3.0,main_task,1.0,3.0,chris,"4/18/2022, 7:04:37 PM",5f5jdok8y0hcbo83uolj,0.0-6.0,pilot_prolific_repeat_encoding,40,woman,103,2.0,black,25R,C,2710.0,"['../stimuli/version1_gray_lm/id016_00C_U.png', '../stimuli/version1_gray_lm/id016_25L_D.png', '../stimuli/version1_gray_lm/id103_25R_C.png']",79961.0,0.0,11.0,2.0,encoding,woman,016,"[0, 1]",black,"['00C', '25L']","['U', 'D']",,"{'muct_id': '285', 'lighting': 'v', 'race_guess': 'b', 'gender_guess': 'w', 'quality': '3', 'quality_eyes': '3', 'quality_mouth': '3', 'quality_ears': '3', 'quality_hair': '3', 'quality_neck': '3', 'facial_hair': '0.0', 'notes': 'earrings', 'race_common': 'black', 'gender_common': 'woman'}","{'muct_id': '18', 'lighting': 'q', 'race_guess': 'b', 'gender_guess': 'w', 'quality': '3', 'quality_eyes': '3', 'quality_mouth': '3', 'quality_ears': '3', 'quality_hair': '3', 'quality_neck': '3', 'facial_hair': '0.0', 'notes': 'earrings', 'race_common': 'black', 'gender_common': 'woman'}",,,,,,,,,,,,,,,,,,,,,,,,,,,,,,,,,,,,,,,,,,,,,,625e185c4919524159d3b71e,625e15a9b58e919816fee4eb,6111933f9eec6b3f262f01b7
3577,625e18b5b06d664c87071fb4,Chrome,2.0,main_task,1.0,2.0,chris,"4/18/2022, 10:04:38 PM",enpzcs5vx3nem871ak5w,0.0-76.0,pilot_prolific_repeat_encoding,39,woman,155,1.0,white,25R,D,3891.0,"['../stimuli/version1_gray_lm/id076_25L_C.png', '../stimuli/version1_gray_lm/id155_25R_D.png', '../stimuli/version1_gray_lm/id076_00C_U.png']",292365.0,0.0,81.0,37.0,encoding,woman,076,"[0, 2]",white,"['25L', '00C']","['C', 'U']",,"{'muct_id': '615', 'lighting': 'z', 'race_guess': 'w', 'gender_guess': 'w', 'quality': '3', 'quality_eyes': '3', 'quality_mouth': '3', 'quality_ears': '3', 'quality_hair': '3', 'quality_neck': '3', 'facial_hair': '0.0', 'notes': 'earrings', 'race_common': 'white', 'gender_common': 'woman'}","{'muct_id': '233', 'lighting': 'u', 'race_guess': 'w', 'gender_guess': 'w', 'quality': '3', 'quality_eyes': '3', 'quality_mouth': '3', 'quality_ears': '3', 'quality_hair': '3', 'quality_neck': '3', 'facial_hair': '0.0', 'notes': 'earrings', 'race_common': 'white', 'gender_common': 'woman'}",,,,,,,,,,,,,,,,,,,,,,,,,,,,,,,,,,,,,,,,,,,,,,625e178456f03cd939f5b01d,625e15a9b58e919816fee4ea,5dcdd7bf324a3d0a6c24b608
3578,625e18b8b06d664c87071fb5,Chrome,3.0,main_task,1.0,3.0,chris,"4/18/2022, 10:04:40 PM",enpzcs5vx3nem871ak5w,0.0-78.0,pilot_prolific_repeat_encoding,40,man,139,2.0,black,50R,D,2388.0,"['../stimuli/version1_gray_lm/id004_25L_C.png', '../stimuli/version1_gray_lm/id004_00C_U.png', '../stimuli/version1_gray_lm/id139_50R_D.png']",295066.0,0.0,83.0,38.0,encoding,man,004,"[0, 1]",black,"['25L', '00C']","['C', 'U']",,"{'muct_id': '623', 'lighting': 'y', 'race_guess': 'b', 'gender_guess': 'm', 'quality': '3', 'quality_eyes': '3', 'quality_mouth': '3', 'quality_ears': '3', 'quality_hair': '3', 'quality_neck': '3', 'facial_hair': '1.0', 'notes': 'mouth', 'race_common': 'black', 'gender_common': 'man'}","{'muct_id': '4', 'lighting': 'q', 'race_guess': 'b', 'gender_guess': 'm', 'quality': '3', 'quality_eyes': '3', 'quality_mouth': '3', 'quality_ears': '3', 'quality_hair': '3', 'quality_neck': '3', 'facial_hair': '2.0', 'notes': None, 'race_common': 'black', 'gender_common': 'man'}",,,,,,,,,,,,,,,,,,,,,,,,,,,,,,,,,,,,,,,,,,,,,,625e178456f03cd939f5b01d,625e15a9b58e919816fee4ea,5dcdd7bf324a3d0a6c24b608
3579,625e18b8b06d664c87071fb6,Chrome,1.0,main_task,0.0,2.0,chris,"4/18/2022, 7:04:40 PM",5f5jdok8y0hcbo83uolj,0.0-8.0,pilot_prolific_repeat_encoding,37,woman,101,1.0,white,50R,D,2306.0,"['../stimuli/version1_gray_lm/id084_00C_C.png', '../stimuli/version1_gray_lm/id101_50R_D.png', '../stimuli/version1_gray_lm/id084_50L_U.png']",83216.0,0.0,13.0,3.0,encoding,woman,084,"[0, 2]",white,"['00C', '50L']","['C', 'U']",,"{'muct_id': '281', 'lighting': 't', 'race_guess': 'w', 'gender_guess': 'w', 'quality': '3', 'quality_eyes': '3', 'quality_mouth': '3', 'quality_ears': '3', 'quality_hair': '3', 'quality_neck': '3', 'facial_hair': '0.0', 'notes': None, 'race_common': 'white', 'gender_common': 'woman'}","{'muct_id': '248', 'lighting': 'u', 'race_guess': 'w', 'gender_guess': 'w', 'quality': '3', 'quality_eyes': '3', 'quality_mouth': '3', 'quality_ears': '3', 'quality_hair': '3', 'quality_neck': '3', 'facial_hair': '0.0', 'notes': None, 'race_common': 'white', 'gender_common': 'woman'}",,,,,,,,,,,,,,,,,,,,,,,,,,,,,,,,,,,,,,,,,,,,,,625e185c4919524159d3b71e,625e15a9b58e919816fee4eb,6111933f9eec6b3f262f01b7
3580,625e18bcb06d664c87071fb7,Chrome,2.0,main_task,1.0,2.0,chris,"4/18/2022, 10:04:44 PM",enpzcs5vx3nem871ak5w,0.0-80.0,pilot_prolific_repeat_encoding,39,woman,153,1.0,white,50R,C,3422.0,"['../stimuli/version1_gray_lm/id003_00C_U.png', '../stimuli/version1_gray_lm/id153_50R_C.png', '../stimuli/version1_gray_lm/id003_25L_D.png']",298917.0,0.0,85.0,39.0,encoding,woman,003,"[0, 2]",white,"['00C', '25L']","['U', 'D']",,"{'muct_id': '437', 'lighting': 'x', 'race_guess': 'w', 'gender_guess': 'w', 'quality': '3', 'quality_eyes': '3', 'quality_mouth': '3', 'quality_ears': '3', 'quality_hair': '3', 'quality_neck': '3', 'facial_hair': '0.0', 'notes': 'hair', 'race_common': 'white', 'gender_common': 'woman'}","{'muct_id': '3', 'lighting': 's', 'race_guess': 'i', 'gender_guess': 'w', 'quality': '2', 'quality_eyes': '3', 'quality_mouth': '3', 'quality_ears': '3', 'quality_hair': '2', 'quality_neck': '3', 'facial_hair': '0.0', 'notes': 'hair', 'race_common': 'white', 'gender_common': 'woman'}",,,,,,,,,,,,,,,,,,,,,,,,,,,,,,,,,,,,,,,,,,,,,,625e178456f03cd939f5b01d,625e15a9b58e919816fee4ea,5dcdd7bf324a3d0a6c24b608
3581,625e18bcb06d664c87071fb8,Chrome,2.0,main_task,1.0,2.0,chris,"4/18/2022, 7:04:44 PM",5f5jdok8y0hcbo83uolj,0.0-10.0,pilot_prolific_repeat_encoding,39,man,105,1.0,black,25L,D,2912.0,"['../stimuli/version1_gray_lm/id086_25R_C.png', '../stimuli/version1_gray_lm/id105_25L_D.png', '../stimuli/version1_gray_lm/id086_00C_U.png']",86915.0,0.0,15.0,4.0,encoding,man,086,"[0, 2]",black,"['25R', '00C']","['C', 'U']",,"{'muct_id': '290', 'lighting': 't', 'race_guess': 'b', 'gender_guess': 'm', 'quality': '3', 'quality_eyes': '3', 'quality_mouth': '3', 'quality_ears': '3', 'quality_hair': '3', 'quality_neck': '3', 'facial_hair': '2.0', 'notes': None, 'race_common': 'black', 'gender_common': 'man'}","{'muct_id': '250', 'lighting': 't', 'race_guess': 'b', 'gender_guess': 'm', 'quality': '3', 'quality_eyes': '3', 'quality_mouth': '3', 'quality_ears': '3', 'quality_hair': '3', 'quality_neck': '3', 'facial_hair': '1.0', 'notes': None, 'race_common': 'black', 'gender_common': 'man'}",,,,,,,,,,,,,,,,,,,,,,,,,,,,,,,,,,,,,,,,,,,,,,625e185c4919524159d3b71e,625e15a9b58e919816fee4eb,6111933f9eec6b3f262f01b7
3582,625e18bfb06d664c87071fb9,Chrome,2.0,main_task,1.0,2.0,chris,"4/18/2022, 7:04:47 PM",5f5jdok8y0hcbo83uolj,0.0-12.0,pilot_prolific_repeat_encoding,39,woman,102,1.0,white,50L,D,2569.0,"['../stimuli/version1_gray_lm/id017_00C_U.png', '../stimuli/version1_gray_lm/id102_50L_D.png', '../stimuli/version1_gray_lm/id017_50R_C.png']",90183.0,0.0,17.0,5.0,encoding,woman,017,"[0, 2]",white,"['00C', '50R']","['U', 'C']",,"{'muct_id': '283', 'lighting': 't', 'race_guess': 'i', 'gender_guess': 'w', 'quality': '3', 'quality_eyes': '3', 'quality_mouth': '3', 'quality_ears': '3', 'quality_hair': '3', 'quality_neck': '3', 'facial_hair': '0.0', 'notes': 'pottu', 'race_common': 'white', 'gender_common': 'woman'}","{'muct_id': '19', 'lighting': 'r', 'race_guess': 'w', 'gender_guess': 'w', 'quality': '3', 'quality_eyes': '3', 'quality_mouth': '3', 'quality_ears': '3', 'quality_hair': '3', 'quality_neck': '3', 'facial_hair': '0.0', 'notes': None, 'race_common': 'white', 'gender_common': 'woman'}",,,,,,,,,,,,,,,,,,,,,,,,,,,,,,,,,,,,,,,,,,,,,,625e185c4919524159d3b71e,625e15a9b58e919816fee4eb,6111933f9eec6b3f262f01b7
3583,625e18c3b06d664c87071fba,Chrome,1.0,main_task,1.0,1.0,chris,"4/18/2022, 10:04:51 PM",enpzcs5vx3nem871ak5w,0.0-82.0,pilot_prolific_repeat_encoding,37,man,137,0.0,black,25L,U,6207.0,"['../stimuli/version1_gray_lm/id137_25L_U.png', '../stimuli/version1_gray_lm/id085_00C_D.png', '../stimuli/version1_gray_lm/id085_50R_C.png']",305478.0,0.0,87.0,40.0,encoding,man,085,"[1, 2]",black,"['00C', '50R']","['D', 'C']",,"{'muct_id': '617', 'lighting': 'y', 'race_guess': 'b', 'gender_guess': 'w', 'quality': '3', 'quality_eyes': '3', 'quality_mouth': '3', 'quality_ears': '3', 'quality_hair': '3', 'quality_neck': '3', 'facial_hair': '0.0', 'notes': 'mouth', 'race_common': 'black', 'gender_common': 'man'}","{'muct_id': '249', 'lighting': 't', 'race_guess': 'b', 'gender_guess': 'w', 'quality': '2', 'quality_eyes': '2', 'quality_mouth': '3', 'quality_ears': '3', 'quality_hair': '3', 'quality_neck': '3', 'facial_hair': '0.0', 'notes': None, 'race_common': 'black', 'gender_common': 'man'}",,,,,,,,,,,,,,,,,,,,,,,,,,,,,,,,,,,,,,,,,,,,,,625e178456f03cd939f5b01d,625e15a9b58e919816fee4ea,5dcdd7bf324a3d0a6c24b608
3584,625e18c3b06d664c87071fbb,Chrome,2.0,main_task,0.0,1.0,chris,"4/18/2022, 7:04:51 PM",5f5jdok8y0hcbo83uolj,0.0-14.0,pilot_prolific_repeat_encoding,39,woman,111,0.0,black,25L,C,3046.0,"['../stimuli/version1_gray_lm/id111_25L_C.png', '../stimuli/version1_gray_lm/id035_00C_D.png', '../stimuli/version1_gray_lm/id035_25R_U.png']",93967.0,0.0,19.0,6.0,encoding,woman,035,"[1, 2]",black,"['00C', '25R']","['D', 'U']",,"{'muct_id': '405', 'lighting': 'w', 'race_guess': 'b', 'gender_guess': 'w', 'quality': '3', 'quality_eyes': '3', 'quality_mouth': '3', 'quality_ears': '3', 'quality_hair': '3', 'quality_neck': '3', 'facial_hair': '0.0', 'notes': 'hair earrings', 'race_common': 'black', 'gender_common': 'woman'}","{'muct_id': '46', 'lighting': 'q', 'race_guess': 'b', 'gender_guess': 'w', 'quality': '3', 'quality_eyes': '3', 'quality_mouth': '3', 'quality_ears': '3', 'quality_hair': '3', 'quality_neck': '3', 'facial_hair': '0.0', 'notes': 'earrings', 'race_common': 'black', 'gender_common': 'woman'}",,,,,,,,,,,,,,,,,,,,,,,,,,,,,,,,,,,,,,,,,,,,,,625e185c4919524159d3b71e,625e15a9b58e919816fee4eb,6111933f9eec6b3f262f01b7
3585,625e18c6b06d664c87071fbc,Chrome,1.0,main_task,1.0,1.0,chris,"4/18/2022, 10:04:54 PM",enpzcs5vx3nem871ak5w,0.0-84.0,pilot_prolific_repeat_encoding,37,woman,125,0.0,white,25R,U,2705.0,"['../stimuli/version1_gray_lm/id125_25R_U.png', '../stimuli/version1_gray_lm/id017_25L_D.png', '../stimuli/version1_gray_lm/id017_00C_C.png']",308515.0,0.0,89.0,41.0,encoding,woman,017,"[1, 2]",white,"['00C', '25L']","['C', 'D']",,"{'muct_id': '433', 'lighting': 'x', 'race_guess': 'w', 'gender_guess': 'w', 'quality': '3', 'quality_eyes': '3', 'quality_mouth': '3', 'quality_ears': '3', 'quality_hair': '3', 'quality_neck': '3', 'facial_hair': '0.0', 'notes': None, 'race_common': 'white', 'gender_common': 'woman'}","{'muct_id': '19', 'lighting': 'r', 'race_guess': 'w', 'gender_guess': 'w', 'quality': '3', 'quality_eyes': '3', 'quality_mouth': '3', 'quality_ears': '3', 'quality_hair': '3', 'quality_neck': '3', 'facial_hair': '0.0', 'notes': None, 'race_common': 'white', 'gender_common': 'woman'}",,,,,,,,,,,,,,,,,,,,,,,,,,,,,,,,,,,,,,,,,,,,,,625e178456f03cd939f5b01d,625e15a9b58e919816fee4ea,5dcdd7bf324a3d0a6c24b608
3586,625e18c6b06d664c87071fbd,Chrome,3.0,main_task,1.0,3.0,chris,"4/18/2022, 7:04:54 PM",5f5jdok8y0hcbo83uolj,0.0-16.0,pilot_prolific_repeat_encoding,40,man,104,2.0,white,50R,D,1610.0,"['../stimuli/version1_gray_lm/id052_00C_U.png', '../stimuli/version1_gray_lm/id052_25L_C.png', '../stimuli/version1_gray_lm/id104_50R_D.png']",96470.0,0.0,21.0,7.0,encoding,man,052,"[0, 1]",white,"['00C', '25L']","['U', 'C']",,"{'muct_id': '287', 'lighting': 't', 'race_guess': 'w', 'gender_guess': 'm', 'quality': '3', 'quality_eyes': '3', 'quality_mouth': '3', 'quality_ears': '3', 'quality_hair': '3', 'quality_neck': '3', 'facial_hair': '2.0', 'notes': None, 'race_common': 'white', 'gender_common': 'man'}","{'muct_id': '75', 'lighting': 'q', 'race_guess': 'w', 'gender_guess': 'm', 'quality': '3', 'quality_eyes': '3', 'quality_mouth': '3', 'quality_ears': '3', 'quality_hair': '3', 'quality_neck': '3', 'facial_hair': '4.0', 'notes': 'beard', 'race_common': 'white', 'gender_common': 'man'}",,,,,,,,,,,,,,,,,,,,,,,,,,,,,,,,,,,,,,,,,,,,,,625e185c4919524159d3b71e,625e15a9b58e919816fee4eb,6111933f9eec6b3f262f01b7
3587,625e18c9b06d664c87071fbe,Chrome,1.0,main_task,1.0,1.0,chris,"4/18/2022, 10:04:57 PM",enpzcs5vx3nem871ak5w,0.0-86.0,pilot_prolific_repeat_encoding,37,woman,155,0.0,white,25R,D,2671.0,"['../stimuli/version1_gray_lm/id155_25R_D.png', '../stimuli/version1_gray_lm/id076_00C_U.png', '../stimuli/version1_gray_lm/id076_25L_C.png']",311525.0,0.0,91.0,42.0,encoding,woman,076,"[1, 2]",white,"['25L', '00C']","['C', 'U']",,"{'muct_id': '615', 'lighting': 'z', 'race_guess': 'w', 'gender_guess': 'w', 'quality': '3', 'quality_eyes': '3', 'quality_mouth': '3', 'quality_ears': '3', 'quality_hair': '3', 'quality_neck': '3', 'facial_hair': '0.0', 'notes': 'earrings', 'race_common': 'white', 'gender_common': 'woman'}","{'muct_id': '233', 'lighting': 'u', 'race_guess': 'w', 'gender_guess': 'w', 'quality': '3', 'quality_eyes': '3', 'quality_mouth': '3', 'quality_ears': '3', 'quality_hair': '3', 'quality_neck': '3', 'facial_hair': '0.0', 'notes': 'earrings', 'race_common': 'white', 'gender_common': 'woman'}",,,,,,,,,,,,,,,,,,,,,,,,,,,,,,,,,,,,,,,,,,,,,,625e178456f03cd939f5b01d,625e15a9b58e919816fee4ea,5dcdd7bf324a3d0a6c24b608
3588,625e18cab06d664c87071fbf,Chrome,2.0,main_task,1.0,2.0,chris,"4/18/2022, 7:04:58 PM",5f5jdok8y0hcbo83uolj,0.0-18.0,pilot_prolific_repeat_encoding,39,man,112,1.0,black,25L,C,3306.0,"['../stimuli/version1_gray_lm/id004_00C_U.png', '../stimuli/version1_gray_lm/id112_25L_C.png', '../stimuli/version1_gray_lm/id004_25R_D.png']",100622.0,0.0,23.0,8.0,encoding,man,004,"[0, 2]",black,"['00C', '25R']","['U', 'D']",,"{'muct_id': '406', 'lighting': 'w', 'race_guess': 'b', 'gender_guess': 'm', 'quality': '3', 'quality_eyes': '3', 'quality_mouth': '3', 'quality_ears': '3', 'quality_hair': '3', 'quality_neck': '3', 'facial_hair': '1.0', 'notes': None, 'race_common': 'black', 'gender_common': 'man'}","{'muct_id': '4', 'lighting': 'q', 'race_guess': 'b', 'gender_guess': 'm', 'quality': '3', 'quality_eyes': '3', 'quality_mouth': '3', 'quality_ears': '3', 'quality_hair': '3', 'quality_neck': '3', 'facial_hair': '2.0', 'notes': None, 'race_common': 'black', 'gender_common': 'man'}",,,,,,,,,,,,,,,,,,,,,,,,,,,,,,,,,,,,,,,,,,,,,,625e185c4919524159d3b71e,625e15a9b58e919816fee4eb,6111933f9eec6b3f262f01b7
3589,625e18ccb06d664c87071fc0,Chrome,1.0,main_task,1.0,1.0,chris,"4/18/2022, 10:05:00 PM",enpzcs5vx3nem871ak5w,0.0-88.0,pilot_prolific_repeat_encoding,37,woman,152,0.0,white,00C,U,2832.0,"['../stimuli/version1_gray_lm/id152_00C_U.png', '../stimuli/version1_gray_lm/id051_25L_D.png', '../stimuli/version1_gray_lm/id051_25R_C.png']",314686.0,0.0,93.0,43.0,encoding,woman,051,"[1, 2]",white,"['25L', '25R']","['D', 'C']",,"{'muct_id': '446', 'lighting': 'w', 'race_guess': 'w', 'gender_guess': 'w', 'quality': '3', 'quality_eyes': '3', 'quality_mouth': '3', 'quality_ears': '3', 'quality_hair': '3', 'quality_neck': '3', 'facial_hair': '0.0', 'notes': None, 'race_common': 'white', 'gender_common': 'woman'}","{'muct_id': '74', 'lighting': 'q', 'race_guess': 'w', 'gender_guess': 'w', 'quality': '3', 'quality_eyes': '3', 'quality_mouth': '3', 'quality_ears': '3', 'quality_hair': '3', 'quality_neck': '3', 'facial_hair': '0.0', 'notes': None, 'race_common': 'white', 'gender_common': 'woman'}",,,,,,,,,,,,,,,,,,,,,,,,,,,,,,,,,,,,,,,,,,,,,,625e178456f03cd939f5b01d,625e15a9b58e919816fee4ea,5dcdd7bf324a3d0a6c24b608
3590,625e18cfb06d664c87071fc1,Chrome,3.0,main_task,1.0,3.0,chris,"4/18/2022, 10:05:03 PM",enpzcs5vx3nem871ak5w,0.0-90.0,pilot_prolific_repeat_encoding,40,man,149,2.0,white,25R,U,2602.0,"['../stimuli/version1_gray_lm/id052_00C_D.png', '../stimuli/version1_gray_lm/id052_25L_C.png', '../stimuli/version1_gray_lm/id149_25R_U.png']",317595.0,0.0,95.0,44.0,encoding,man,052,"[0, 1]",white,"['00C', '25L']","['D', 'C']",,"{'muct_id': '416', 'lighting': 'w', 'race_guess': 'w', 'gender_guess': 'm', 'quality': '3', 'quality_eyes': '3', 'quality_mouth': '3', 'quality_ears': '3', 'quality_hair': '3', 'quality_neck': '3', 'facial_hair': '2.0', 'notes': None, 'race_common': 'white', 'gender_common': 'man'}","{'muct_id': '75', 'lighting': 'q', 'race_guess': 'w', 'gender_guess': 'm', 'quality': '3', 'quality_eyes': '3', 'quality_mouth': '3', 'quality_ears': '3', 'quality_hair': '3', 'quality_neck': '3', 'facial_hair': '4.0', 'notes': 'beard', 'race_common': 'white', 'gender_common': 'man'}",,,,,,,,,,,,,,,,,,,,,,,,,,,,,,,,,,,,,,,,,,,,,,625e178456f03cd939f5b01d,625e15a9b58e919816fee4ea,5dcdd7bf324a3d0a6c24b608
3591,625e18cfb06d664c87071fc2,Chrome,1.0,main_task,1.0,1.0,chris,"4/18/2022, 7:05:03 PM",5f5jdok8y0hcbo83uolj,0.0-20.0,pilot_prolific_repeat_encoding,37,man,113,0.0,black,25R,U,4262.0,"['../stimuli/version1_gray_lm/id113_25R_U.png', '../stimuli/version1_gray_lm/id021_00C_C.png', '../stimuli/version1_gray_lm/id021_25L_D.png']",105514.0,0.0,25.0,9.0,encoding,man,021,"[1, 2]",black,"['00C', '25L']","['C', 'D']",,"{'muct_id': '407', 'lighting': 'x', 'race_guess': 'u', 'gender_guess': 'm', 'quality': '3', 'quality_eyes': '3', 'quality_mouth': '3', 'quality_ears': '3', 'quality_hair': '3', 'quality_neck': '3', 'facial_hair': '3.0', 'notes': 'beard', 'race_common': 'black', 'gender_common': 'man'}","{'muct_id': '25', 'lighting': 'r', 'race_guess': 'b', 'gender_guess': 'm', 'quality': '3', 'quality_eyes': '3', 'quality_mouth': '3', 'quality_ears': '3', 'quality_hair': '3', 'quality_neck': '3', 'facial_hair': '2.0', 'notes': None, 'race_common': 'black', 'gender_common': 'man'}",,,,,,,,,,,,,,,,,,,,,,,,,,,,,,,,,,,,,,,,,,,,,,625e185c4919524159d3b71e,625e15a9b58e919816fee4eb,6111933f9eec6b3f262f01b7
3592,625e18d2b06d664c87071fc3,Chrome,3.0,main_task,1.0,3.0,chris,"4/18/2022, 7:05:06 PM",5f5jdok8y0hcbo83uolj,0.0-22.0,pilot_prolific_repeat_encoding,40,man,117,2.0,black,50R,C,2272.0,"['../stimuli/version1_gray_lm/id040_50L_D.png', '../stimuli/version1_gray_lm/id040_00C_U.png', '../stimuli/version1_gray_lm/id117_50R_C.png']",108454.0,0.0,27.0,10.0,encoding,man,040,"[0, 1]",black,"['50L', '00C']","['D', 'U']",,"{'muct_id': '417', 'lighting': 'w', 'race_guess': 'b', 'gender_guess': 'm', 'quality': '3', 'quality_eyes': '3', 'quality_mouth': '3', 'quality_ears': '3', 'quality_hair': '3', 'quality_neck': '3', 'facial_hair': '1.0', 'notes': 'mouth', 'race_common': 'black', 'gender_common': 'man'}","{'muct_id': '55', 'lighting': 'r', 'race_guess': 'b', 'gender_guess': 'm', 'quality': '3', 'quality_eyes': '3', 'quality_mouth': '3', 'quality_ears': '3', 'quality_hair': '3', 'quality_neck': '3', 'facial_hair': '3.0', 'notes': 'beard', 'race_common': 'black', 'gender_common': 'man'}",,,,,,,,,,,,,,,,,,,,,,,,,,,,,,,,,,,,,,,,,,,,,,625e185c4919524159d3b71e,625e15a9b58e919816fee4eb,6111933f9eec6b3f262f01b7
3593,625e18d3b06d664c87071fc4,Chrome,1.0,main_task,1.0,1.0,chris,"4/18/2022, 10:05:07 PM",enpzcs5vx3nem871ak5w,0.0-92.0,pilot_prolific_repeat_encoding,37,man,124,0.0,black,00C,U,3816.0,"['../stimuli/version1_gray_lm/id124_00C_U.png', '../stimuli/version1_gray_lm/id036_25R_D.png', '../stimuli/version1_gray_lm/id036_50L_C.png']",321843.0,0.0,97.0,45.0,encoding,man,036,"[1, 2]",black,"['25R', '50L']","['D', 'C']",,"{'muct_id': '431', 'lighting': 'x', 'race_guess': 'b', 'gender_guess': 'u', 'quality': '3', 'quality_eyes': '3', 'quality_mouth': '3', 'quality_ears': '3', 'quality_hair': '3', 'quality_neck': '3', 'facial_hair': '0.0', 'notes': 'mouth', 'race_common': 'black', 'gender_common': 'man'}","{'muct_id': '47', 'lighting': 'q', 'race_guess': 'b', 'gender_guess': 'u', 'quality': '3', 'quality_eyes': '3', 'quality_mouth': '3', 'quality_ears': '3', 'quality_hair': '3', 'quality_neck': '3', 'facial_hair': '0.0', 'notes': None, 'race_common': 'black', 'gender_common': 'man'}",,,,,,,,,,,,,,,,,,,,,,,,,,,,,,,,,,,,,,,,,,,,,,625e178456f03cd939f5b01d,625e15a9b58e919816fee4ea,5dcdd7bf324a3d0a6c24b608
3594,625e18d5b06d664c87071fc5,Chrome,1.0,main_task,1.0,1.0,chris,"4/18/2022, 7:05:09 PM",5f5jdok8y0hcbo83uolj,0.0-24.0,pilot_prolific_repeat_encoding,37,woman,109,0.0,white,25L,U,2609.0,"['../stimuli/version1_gray_lm/id109_25L_U.png', '../stimuli/version1_gray_lm/id013_25R_D.png', '../stimuli/version1_gray_lm/id013_00C_C.png']",111791.0,0.0,29.0,11.0,encoding,woman,013,"[1, 2]",white,"['25R', '00C']","['D', 'C']",,"{'muct_id': '401', 'lighting': 'w', 'race_guess': 'w', 'gender_guess': 'w', 'quality': '3', 'quality_eyes': '3', 'quality_mouth': '3', 'quality_ears': '3', 'quality_hair': '3', 'quality_neck': '3', 'facial_hair': '0.0', 'notes': 'mouth', 'race_common': 'white', 'gender_common': 'woman'}","{'muct_id': '14', 'lighting': 'q', 'race_guess': 'w', 'gender_guess': 'w', 'quality': '3', 'quality_eyes': '3', 'quality_mouth': '3', 'quality_ears': '3', 'quality_hair': '3', 'quality_neck': '3', 'facial_hair': '0.0', 'notes': None, 'race_common': 'white', 'gender_common': 'woman'}",,,,,,,,,,,,,,,,,,,,,,,,,,,,,,,,,,,,,,,,,,,,,,625e185c4919524159d3b71e,625e15a9b58e919816fee4eb,6111933f9eec6b3f262f01b7
3595,625e18d7b06d664c87071fc6,Chrome,3.0,main_task,1.0,3.0,chris,"4/18/2022, 10:05:11 PM",enpzcs5vx3nem871ak5w,0.0-94.0,pilot_prolific_repeat_encoding,40,woman,109,2.0,white,00C,D,3693.0,"['../stimuli/version1_gray_lm/id029_25L_U.png', '../stimuli/version1_gray_lm/id029_50R_C.png', '../stimuli/version1_gray_lm/id109_00C_D.png']",325974.0,0.0,99.0,46.0,encoding,woman,029,"[0, 1]",white,"['50R', '25L']","['C', 'U']",,"{'muct_id': '401', 'lighting': 'w', 'race_guess': 'w', 'gender_guess': 'w', 'quality': '3', 'quality_eyes': '3', 'quality_mouth': '3', 'quality_ears': '3', 'quality_hair': '3', 'quality_neck': '3', 'facial_hair': '0.0', 'notes': 'mouth', 'race_common': 'white', 'gender_common': 'woman'}","{'muct_id': '39', 'lighting': 'r', 'race_guess': 'w', 'gender_guess': 'w', 'quality': '3', 'quality_eyes': '3', 'quality_mouth': '3', 'quality_ears': '3', 'quality_hair': '3', 'quality_neck': '3', 'facial_hair': '0.0', 'notes': 'earrings hair', 'race_common': 'white', 'gender_common': 'woman'}",,,,,,,,,,,,,,,,,,,,,,,,,,,,,,,,,,,,,,,,,,,,,,625e178456f03cd939f5b01d,625e15a9b58e919816fee4ea,5dcdd7bf324a3d0a6c24b608
3596,625e18d8b06d664c87071fc7,Chrome,3.0,main_task,1.0,3.0,chris,"4/18/2022, 7:05:12 PM",5f5jdok8y0hcbo83uolj,0.0-26.0,pilot_prolific_repeat_encoding,40,woman,114,2.0,white,50L,U,2294.0,"['../stimuli/version1_gray_lm/id076_25R_C.png', '../stimuli/version1_gray_lm/id076_00C_D.png', '../stimuli/version1_gray_lm/id114_50L_U.png']",114853.0,0.0,31.0,12.0,encoding,woman,076,"[0, 1]",white,"['25R', '00C']","['C', 'D']",,"{'muct_id': '410', 'lighting': 'w', 'race_guess': 'w', 'gender_guess': 'w', 'quality': '3', 'quality_eyes': '3', 'quality_mouth': '3', 'quality_ears': '3', 'quality_hair': '3', 'quality_neck': '3', 'facial_hair': '0.0', 'notes': 'makeup mouth', 'race_common': 'white', 'gender_common': 'woman'}","{'muct_id': '233', 'lighting': 'u', 'race_guess': 'w', 'gender_guess': 'w', 'quality': '3', 'quality_eyes': '3', 'quality_mouth': '3', 'quality_ears': '3', 'quality_hair': '3', 'quality_neck': '3', 'facial_hair': '0.0', 'notes': 'earrings', 'race_common': 'white', 'gender_common': 'woman'}",,,,,,,,,,,,,,,,,,,,,,,,,,,,,,,,,,,,,,,,,,,,,,625e185c4919524159d3b71e,625e15a9b58e919816fee4eb,6111933f9eec6b3f262f01b7
3597,625e18dbb06d664c87071fc8,Chrome,1.0,main_task,1.0,1.0,chris,"4/18/2022, 10:05:16 PM",enpzcs5vx3nem871ak5w,0.0-96.0,pilot_prolific_repeat_encoding,37,man,117,0.0,black,00C,C,4088.0,"['../stimuli/version1_gray_lm/id117_00C_C.png', '../stimuli/version1_gray_lm/id028_50L_U.png', '../stimuli/version1_gray_lm/id028_50R_D.png']",330399.0,0.0,101.0,47.0,encoding,man,028,"[1, 2]",black,"['50R', '50L']","['D', 'U']",,"{'muct_id': '417', 'lighting': 'w', 'race_guess': 'b', 'gender_guess': 'm', 'quality': '3', 'quality_eyes': '3', 'quality_mouth': '3', 'quality_ears': '3', 'quality_hair': '3', 'quality_neck': '3', 'facial_hair': '1.0', 'notes': 'mouth', 'race_common': 'black', 'gender_common': 'man'}","{'muct_id': '38', 'lighting': 'q', 'race_guess': 'b', 'gender_guess': 'm', 'quality': '3', 'quality_eyes': '3', 'quality_mouth': '3', 'quality_ears': '3', 'quality_hair': '3', 'quality_neck': '3', 'facial_hair': '2.0', 'notes': None, 'race_common': 'black', 'gender_common': 'man'}",,,,,,,,,,,,,,,,,,,,,,,,,,,,,,,,,,,,,,,,,,,,,,625e178456f03cd939f5b01d,625e15a9b58e919816fee4ea,5dcdd7bf324a3d0a6c24b608
3598,625e18dcb06d664c87071fc9,Chrome,2.0,main_task,1.0,2.0,chris,"4/18/2022, 7:05:16 PM",5f5jdok8y0hcbo83uolj,0.0-28.0,pilot_prolific_repeat_encoding,39,man,116,1.0,white,50L,D,3040.0,"['../stimuli/version1_gray_lm/id043_00C_C.png', '../stimuli/version1_gray_lm/id116_50L_D.png', '../stimuli/version1_gray_lm/id043_25R_U.png']",118486.0,0.0,33.0,13.0,encoding,man,043,"[0, 2]",white,"['00C', '25R']","['C', 'U']",,"{'muct_id': '414', 'lighting': 'w', 'race_guess': 'w', 'gender_guess': 'm', 'quality': '3', 'quality_eyes': '3', 'quality_mouth': '3', 'quality_ears': '3', 'quality_hair': '3', 'quality_neck': '3', 'facial_hair': '0.0', 'notes': None, 'race_common': 'white', 'gender_common': 'man'}","{'muct_id': '58', 'lighting': 'q', 'race_guess': 'w', 'gender_guess': 'm', 'quality': '3', 'quality_eyes': '3', 'quality_mouth': '3', 'quality_ears': '3', 'quality_hair': '3', 'quality_neck': '3', 'facial_hair': '0.0', 'notes': None, 'race_common': 'white', 'gender_common': 'man'}",,,,,,,,,,,,,,,,,,,,,,,,,,,,,,,,,,,,,,,,,,,,,,625e185c4919524159d3b71e,625e15a9b58e919816fee4eb,6111933f9eec6b3f262f01b7
3599,625e18dfb06d664c87071fca,Chrome,1.0,main_task,1.0,1.0,chris,"4/18/2022, 10:05:19 PM",enpzcs5vx3nem871ak5w,0.0-98.0,pilot_prolific_repeat_encoding,37,man,145,0.0,white,50R,C,3287.0,"['../stimuli/version1_gray_lm/id145_50R_C.png', '../stimuli/version1_gray_lm/id080_25L_D.png', '../stimuli/version1_gray_lm/id080_00C_U.png']",334088.0,0.0,103.0,48.0,encoding,man,080,"[1, 2]",white,"['25L', '00C']","['D', 'U']",,"{'muct_id': '230', 'lighting': 'u', 'race_guess': 'w', 'gender_guess': 'm', 'quality': '3', 'quality_eyes': '3', 'quality_mouth': '3', 'quality_ears': '3', 'quality_hair': '3', 'quality_neck': '3', 'facial_hair': '0.0', 'notes': 'hair', 'race_common': 'white', 'gender_common': 'man'}","{'muct_id': '240', 'lighting': 'u', 'race_guess': 'w', 'gender_guess': 'm', 'quality': '3', 'quality_eyes': '3', 'quality_mouth': '3', 'quality_ears': '3', 'quality_hair': '3', 'quality_neck': '3', 'facial_hair': '0.0', 'notes': 'mouth', 'race_common': 'white', 'gender_common': 'man'}",,,,,,,,,,,,,,,,,,,,,,,,,,,,,,,,,,,,,,,,,,,,,,625e178456f03cd939f5b01d,625e15a9b58e919816fee4ea,5dcdd7bf324a3d0a6c24b608
3600,625e18e1b06d664c87071fcb,Chrome,2.0,main_task,0.0,1.0,chris,"4/18/2022, 7:05:21 PM",5f5jdok8y0hcbo83uolj,0.0-30.0,pilot_prolific_repeat_encoding,39,man,115,0.0,white,25R,C,4429.0,"['../stimuli/version1_gray_lm/id115_25R_C.png', '../stimuli/version1_gray_lm/id034_25L_U.png', '../stimuli/version1_gray_lm/id034_00C_D.png']",123530.0,0.0,35.0,14.0,encoding,man,034,"[1, 2]",white,"['25L', '00C']","['U', 'D']",,"{'muct_id': '412', 'lighting': 'x', 'race_guess': 'w', 'gender_guess': 'm', 'quality': '3', 'quality_eyes': '3', 'quality_mouth': '3', 'quality_ears': '3', 'quality_hair': '3', 'quality_neck': '3', 'facial_hair': '0.0', 'notes': None, 'race_common': 'white', 'gender_common': 'man'}","{'muct_id': '45', 'lighting': 'q', 'race_guess': 'w', 'gender_guess': 'm', 'quality': '3', 'quality_eyes': '3', 'quality_mouth': '3', 'quality_ears': '3', 'quality_hair': '3', 'quality_neck': '3', 'facial_hair': '0.0', 'notes': None, 'race_common': 'white', 'gender_common': 'man'}",,,,,,,,,,,,,,,,,,,,,,,,,,,,,,,,,,,,,,,,,,,,,,625e185c4919524159d3b71e,625e15a9b58e919816fee4eb,6111933f9eec6b3f262f01b7
3601,625e18e4b06d664c87071fcc,Chrome,3.0,main_task,1.0,3.0,chris,"4/18/2022, 10:05:24 PM",enpzcs5vx3nem871ak5w,0.0-100.0,pilot_prolific_repeat_encoding,40,woman,127,2.0,black,25R,U,4071.0,"['../stimuli/version1_gray_lm/id016_00C_D.png', '../stimuli/version1_gray_lm/id016_25L_C.png', '../stimuli/version1_gray_lm/id127_25R_U.png']",338551.0,0.0,105.0,49.0,encoding,woman,016,"[0, 1]",black,"['25L', '00C']","['C', 'D']",,"{'muct_id': '435', 'lighting': 'x', 'race_guess': 'b', 'gender_guess': 'w', 'quality': '3', 'quality_eyes': '3', 'quality_mouth': '3', 'quality_ears': '3', 'quality_hair': '3', 'quality_neck': '3', 'facial_hair': '0.0', 'notes': 'bandana', 'race_common': 'black', 'gender_common': 'woman'}","{'muct_id': '18', 'lighting': 'q', 'race_guess': 'b', 'gender_guess': 'w', 'quality': '3', 'quality_eyes': '3', 'quality_mouth': '3', 'quality_ears': '3', 'quality_hair': '3', 'quality_neck': '3', 'facial_hair': '0.0', 'notes': 'earrings', 'race_common': 'black', 'gender_common': 'woman'}",,,,,,,,,,,,,,,,,,,,,,,,,,,,,,,,,,,,,,,,,,,,,,625e178456f03cd939f5b01d,625e15a9b58e919816fee4ea,5dcdd7bf324a3d0a6c24b608
3602,625e18e5b06d664c87071fcd,Chrome,2.0,main_task,0.0,1.0,chris,"4/18/2022, 7:05:25 PM",5f5jdok8y0hcbo83uolj,0.0-32.0,pilot_prolific_repeat_encoding,39,man,119,0.0,black,50R,D,4103.0,"['../stimuli/version1_gray_lm/id119_50R_D.png', '../stimuli/version1_gray_lm/id030_50L_U.png', '../stimuli/version1_gray_lm/id030_00C_C.png']",128239.0,0.0,37.0,15.0,encoding,man,030,"[1, 2]",black,"['50L', '00C']","['U', 'C']",,"{'muct_id': '420', 'lighting': 'w', 'race_guess': 'b', 'gender_guess': 'm', 'quality': '3', 'quality_eyes': '3', 'quality_mouth': '3', 'quality_ears': '3', 'quality_hair': '3', 'quality_neck': '3', 'facial_hair': '0.0', 'notes': None, 'race_common': 'black', 'gender_common': 'man'}","{'muct_id': '41', 'lighting': 'r', 'race_guess': 'b', 'gender_guess': 'm', 'quality': '3', 'quality_eyes': '3', 'quality_mouth': '3', 'quality_ears': '3', 'quality_hair': '3', 'quality_neck': '3', 'facial_hair': '0.0', 'notes': None, 'race_common': 'black', 'gender_common': 'man'}",,,,,,,,,,,,,,,,,,,,,,,,,,,,,,,,,,,,,,,,,,,,,,625e185c4919524159d3b71e,625e15a9b58e919816fee4eb,6111933f9eec6b3f262f01b7
3603,625e18e6b06d664c87071fce,Chrome,3.0,main_task,1.0,3.0,chris,"4/18/2022, 10:05:26 PM",enpzcs5vx3nem871ak5w,0.0-102.0,pilot_prolific_repeat_encoding,40,woman,114,2.0,white,50R,U,1975.0,"['../stimuli/version1_gray_lm/id088_00C_C.png', '../stimuli/version1_gray_lm/id088_25L_D.png', '../stimuli/version1_gray_lm/id114_50R_U.png']",340906.0,0.0,107.0,50.0,encoding,woman,088,"[0, 1]",white,"['00C', '25L']","['C', 'D']",,"{'muct_id': '410', 'lighting': 'w', 'race_guess': 'w', 'gender_guess': 'w', 'quality': '3', 'quality_eyes': '3', 'quality_mouth': '3', 'quality_ears': '3', 'quality_hair': '3', 'quality_neck': '3', 'facial_hair': '0.0', 'notes': 'makeup mouth', 'race_common': 'white', 'gender_common': 'woman'}","{'muct_id': '252', 'lighting': 't', 'race_guess': 'w', 'gender_guess': 'w', 'quality': '3', 'quality_eyes': '3', 'quality_mouth': '3', 'quality_ears': '3', 'quality_hair': '3', 'quality_neck': '3', 'facial_hair': '0.0', 'notes': 'hair', 'race_common': 'white', 'gender_common': 'woman'}",,,,,,,,,,,,,,,,,,,,,,,,,,,,,,,,,,,,,,,,,,,,,,625e178456f03cd939f5b01d,625e15a9b58e919816fee4ea,5dcdd7bf324a3d0a6c24b608
3604,625e18eab06d664c87071fcf,Chrome,1.0,main_task,1.0,1.0,chris,"4/18/2022, 10:05:30 PM",enpzcs5vx3nem871ak5w,0.0-104.0,pilot_prolific_repeat_encoding,37,woman,123,0.0,white,50L,C,3104.0,"['../stimuli/version1_gray_lm/id123_50L_C.png', '../stimuli/version1_gray_lm/id054_25R_D.png', '../stimuli/version1_gray_lm/id054_00C_U.png']",344536.0,0.0,109.0,51.0,encoding,woman,054,"[1, 2]",white,"['25R', '00C']","['D', 'U']",,"{'muct_id': '76', 'lighting': 'q', 'race_guess': 'w', 'gender_guess': 'w', 'quality': '2', 'quality_eyes': '2', 'quality_mouth': '3', 'quality_ears': '2', 'quality_hair': '2', 'quality_neck': '3', 'facial_hair': '0.0', 'notes': 'hair', 'race_common': 'white', 'gender_common': 'woman'}","{'muct_id': '80', 'lighting': 's', 'race_guess': 'b', 'gender_guess': 'w', 'quality': '3', 'quality_eyes': '3', 'quality_mouth': '3', 'quality_ears': '3', 'quality_hair': '3', 'quality_neck': '3', 'facial_hair': '0.0', 'notes': 'earrings', 'race_common': 'white', 'gender_common': 'woman'}",,,,,,,,,,,,,,,,,,,,,,,,,,,,,,,,,,,,,,,,,,,,,,625e178456f03cd939f5b01d,625e15a9b58e919816fee4ea,5dcdd7bf324a3d0a6c24b608
3605,625e18eab06d664c87071fd0,Chrome,2.0,main_task,1.0,2.0,chris,"4/18/2022, 7:05:30 PM",5f5jdok8y0hcbo83uolj,0.0-34.0,pilot_prolific_repeat_encoding,39,man,118,1.0,black,25R,U,3039.0,"['../stimuli/version1_gray_lm/id081_00C_C.png', '../stimuli/version1_gray_lm/id118_25R_U.png', '../stimuli/version1_gray_lm/id081_50L_D.png']",132441.0,0.0,39.0,16.0,encoding,man,081,"[0, 2]",black,"['00C', '50L']","['C', 'D']",,"{'muct_id': '419', 'lighting': 'x', 'race_guess': 'b', 'gender_guess': 'm', 'quality': '3', 'quality_eyes': '3', 'quality_mouth': '3', 'quality_ears': '3', 'quality_hair': '3', 'quality_neck': '3', 'facial_hair': '1.0', 'notes': None, 'race_common': 'black', 'gender_common': 'man'}","{'muct_id': '241', 'lighting': 't', 'race_guess': 'u', 'gender_guess': 'm', 'quality': '3', 'quality_eyes': '3', 'quality_mouth': '3', 'quality_ears': '3', 'quality_hair': '3', 'quality_neck': '3', 'facial_hair': '1.0', 'notes': 'mouth', 'race_common': 'black', 'gender_common': 'man'}",,,,,,,,,,,,,,,,,,,,,,,,,,,,,,,,,,,,,,,,,,,,,,625e185c4919524159d3b71e,625e15a9b58e919816fee4eb,6111933f9eec6b3f262f01b7
3606,625e18ecb06d664c87071fd1,Chrome,2.0,main_task,1.0,2.0,chris,"4/18/2022, 7:05:32 PM",5f5jdok8y0hcbo83uolj,0.0-36.0,pilot_prolific_repeat_encoding,39,woman,125,1.0,white,00C,D,1632.0,"['../stimuli/version1_gray_lm/id031_25R_C.png', '../stimuli/version1_gray_lm/id125_00C_D.png', '../stimuli/version1_gray_lm/id031_25L_U.png']",134709.0,0.0,41.0,17.0,encoding,woman,031,"[0, 2]",white,"['25R', '25L']","['C', 'U']",,"{'muct_id': '433', 'lighting': 'x', 'race_guess': 'w', 'gender_guess': 'w', 'quality': '3', 'quality_eyes': '3', 'quality_mouth': '3', 'quality_ears': '3', 'quality_hair': '3', 'quality_neck': '3', 'facial_hair': '0.0', 'notes': None, 'race_common': 'white', 'gender_common': 'woman'}","{'muct_id': '42', 'lighting': 'q', 'race_guess': 'u', 'gender_guess': 'w', 'quality': '2', 'quality_eyes': '3', 'quality_mouth': '3', 'quality_ears': '2', 'quality_hair': '3', 'quality_neck': '3', 'facial_hair': '0.0', 'notes': 'mouth', 'race_common': 'white', 'gender_common': 'woman'}",,,,,,,,,,,,,,,,,,,,,,,,,,,,,,,,,,,,,,,,,,,,,,625e185c4919524159d3b71e,625e15a9b58e919816fee4eb,6111933f9eec6b3f262f01b7
3607,625e18eeb06d664c87071fd2,Chrome,2.0,main_task,1.0,2.0,chris,"4/18/2022, 10:05:34 PM",enpzcs5vx3nem871ak5w,0.0-106.0,pilot_prolific_repeat_encoding,39,man,100,1.0,white,50L,U,3799.0,"['../stimuli/version1_gray_lm/id099_00C_C.png', '../stimuli/version1_gray_lm/id100_50L_U.png', '../stimuli/version1_gray_lm/id099_25R_D.png']",348787.0,0.0,111.0,52.0,encoding,man,099,"[0, 2]",white,"['25R', '00C']","['D', 'C']",,"{'muct_id': '280', 'lighting': 'u', 'race_guess': 'w', 'gender_guess': 'm', 'quality': '3', 'quality_eyes': '3', 'quality_mouth': '3', 'quality_ears': '3', 'quality_hair': '3', 'quality_neck': '3', 'facial_hair': '0.0', 'notes': None, 'race_common': 'white', 'gender_common': 'man'}","{'muct_id': '278', 'lighting': 't', 'race_guess': 'w', 'gender_guess': 'm', 'quality': '3', 'quality_eyes': '3', 'quality_mouth': '3', 'quality_ears': '3', 'quality_hair': '3', 'quality_neck': '3', 'facial_hair': '0.0', 'notes': None, 'race_common': 'white', 'gender_common': 'man'}",,,,,,,,,,,,,,,,,,,,,,,,,,,,,,,,,,,,,,,,,,,,,,625e178456f03cd939f5b01d,625e15a9b58e919816fee4ea,5dcdd7bf324a3d0a6c24b608
3608,625e18eeb06d664c87071fd3,Chrome,3.0,main_task,1.0,3.0,chris,"4/18/2022, 7:05:34 PM",5f5jdok8y0hcbo83uolj,0.0-38.0,pilot_prolific_repeat_encoding,40,woman,123,2.0,white,25L,D,1764.0,"['../stimuli/version1_gray_lm/id018_00C_C.png', '../stimuli/version1_gray_lm/id018_25R_U.png', '../stimuli/version1_gray_lm/id123_25L_D.png']",137262.0,0.0,43.0,18.0,encoding,woman,018,"[0, 1]",white,"['00C', '25R']","['C', 'U']",,"{'muct_id': '76', 'lighting': 'q', 'race_guess': 'w', 'gender_guess': 'w', 'quality': '2', 'quality_eyes': '2', 'quality_mouth': '3', 'quality_ears': '2', 'quality_hair': '2', 'quality_neck': '3', 'facial_hair': '0.0', 'notes': 'hair', 'race_common': 'white', 'gender_common': 'woman'}","{'muct_id': '21', 'lighting': 'q', 'race_guess': 'w', 'gender_guess': 'w', 'quality': '3', 'quality_eyes': '3', 'quality_mouth': '3', 'quality_ears': '3', 'quality_hair': '3', 'quality_neck': '3', 'facial_hair': '0.0', 'notes': None, 'race_common': 'white', 'gender_common': 'woman'}",,,,,,,,,,,,,,,,,,,,,,,,,,,,,,,,,,,,,,,,,,,,,,625e185c4919524159d3b71e,625e15a9b58e919816fee4eb,6111933f9eec6b3f262f01b7
3609,625e18f1b06d664c87071fd4,Chrome,3.0,main_task,1.0,3.0,chris,"4/18/2022, 10:05:37 PM",enpzcs5vx3nem871ak5w,0.0-108.0,pilot_prolific_repeat_encoding,40,woman,126,2.0,black,25L,U,2779.0,"['../stimuli/version1_gray_lm/id059_00C_D.png', '../stimuli/version1_gray_lm/id059_25R_C.png', '../stimuli/version1_gray_lm/id126_25L_U.png']",352002.0,0.0,113.0,53.0,encoding,woman,059,"[0, 1]",black,"['25R', '00C']","['C', 'D']",,"{'muct_id': '434', 'lighting': 'w', 'race_guess': 'b', 'gender_guess': 'w', 'quality': '3', 'quality_eyes': '3', 'quality_mouth': '3', 'quality_ears': '3', 'quality_hair': '3', 'quality_neck': '3', 'facial_hair': '0.0', 'notes': 'earrings', 'race_common': 'black', 'gender_common': 'woman'}","{'muct_id': '86', 'lighting': 'q', 'race_guess': 'b', 'gender_guess': 'w', 'quality': '3', 'quality_eyes': '3', 'quality_mouth': '3', 'quality_ears': '3', 'quality_hair': '3', 'quality_neck': '3', 'facial_hair': '0.0', 'notes': 'earrings', 'race_common': 'black', 'gender_common': 'woman'}",,,,,,,,,,,,,,,,,,,,,,,,,,,,,,,,,,,,,,,,,,,,,,625e178456f03cd939f5b01d,625e15a9b58e919816fee4ea,5dcdd7bf324a3d0a6c24b608
3610,625e18f4b06d664c87071fd5,Chrome,1.0,main_task,1.0,1.0,chris,"4/18/2022, 7:05:40 PM",5f5jdok8y0hcbo83uolj,0.0-40.0,pilot_prolific_repeat_encoding,37,woman,120,0.0,black,25R,D,4945.0,"['../stimuli/version1_gray_lm/id120_25R_D.png', '../stimuli/version1_gray_lm/id020_00C_C.png', '../stimuli/version1_gray_lm/id020_25L_U.png']",142829.0,0.0,45.0,19.0,encoding,woman,020,"[1, 2]",black,"['00C', '25L']","['C', 'U']",,"{'muct_id': '421', 'lighting': 'x', 'race_guess': 'b', 'gender_guess': 'w', 'quality': '3', 'quality_eyes': '3', 'quality_mouth': '3', 'quality_ears': '3', 'quality_hair': '3', 'quality_neck': '3', 'facial_hair': '0.0', 'notes': None, 'race_common': 'black', 'gender_common': 'woman'}","{'muct_id': '24', 'lighting': 'q', 'race_guess': 'b', 'gender_guess': 'w', 'quality': '3', 'quality_eyes': '3', 'quality_mouth': '3', 'quality_ears': '3', 'quality_hair': '3', 'quality_neck': '3', 'facial_hair': '0.0', 'notes': None, 'race_common': 'black', 'gender_common': 'woman'}",,,,,,,,,,,,,,,,,,,,,,,,,,,,,,,,,,,,,,,,,,,,,,625e185c4919524159d3b71e,625e15a9b58e919816fee4eb,6111933f9eec6b3f262f01b7
3611,625e18f5b06d664c87071fd6,Chrome,2.0,main_task,1.0,2.0,chris,"4/18/2022, 10:05:41 PM",enpzcs5vx3nem871ak5w,0.0-110.0,pilot_prolific_repeat_encoding,39,woman,102,1.0,white,25R,C,3579.0,"['../stimuli/version1_gray_lm/id007_25L_U.png', '../stimuli/version1_gray_lm/id102_25R_C.png', '../stimuli/version1_gray_lm/id007_00C_D.png']",356011.0,0.0,115.0,54.0,encoding,woman,007,"[0, 2]",white,"['00C', '25L']","['D', 'U']",,"{'muct_id': '283', 'lighting': 't', 'race_guess': 'i', 'gender_guess': 'w', 'quality': '3', 'quality_eyes': '3', 'quality_mouth': '3', 'quality_ears': '3', 'quality_hair': '3', 'quality_neck': '3', 'facial_hair': '0.0', 'notes': 'pottu', 'race_common': 'white', 'gender_common': 'woman'}","{'muct_id': '7', 'lighting': 's', 'race_guess': 'u', 'gender_guess': 'w', 'quality': '3', 'quality_eyes': '3', 'quality_mouth': '3', 'quality_ears': '3', 'quality_hair': '3', 'quality_neck': '3', 'facial_hair': '0.0', 'notes': None, 'race_common': 'white', 'gender_common': 'woman'}",,,,,,,,,,,,,,,,,,,,,,,,,,,,,,,,,,,,,,,,,,,,,,625e178456f03cd939f5b01d,625e15a9b58e919816fee4ea,5dcdd7bf324a3d0a6c24b608
3612,625e18f6b06d664c87071fd7,Chrome,3.0,main_task,1.0,3.0,chris,"4/18/2022, 7:05:42 PM",5f5jdok8y0hcbo83uolj,0.0-42.0,pilot_prolific_repeat_encoding,40,man,121,2.0,black,50R,C,1699.0,"['../stimuli/version1_gray_lm/id028_50L_U.png', '../stimuli/version1_gray_lm/id028_00C_D.png', '../stimuli/version1_gray_lm/id121_50R_C.png']",145009.0,0.0,47.0,20.0,encoding,man,028,"[0, 1]",black,"['50L', '00C']","['U', 'D']",,"{'muct_id': '423', 'lighting': 'w', 'race_guess': 'b', 'gender_guess': 'm', 'quality': '3', 'quality_eyes': '3', 'quality_mouth': '3', 'quality_ears': '3', 'quality_hair': '3', 'quality_neck': '3', 'facial_hair': '1.0', 'notes': None, 'race_common': 'black', 'gender_common': 'man'}","{'muct_id': '38', 'lighting': 'q', 'race_guess': 'b', 'gender_guess': 'm', 'quality': '3', 'quality_eyes': '3', 'quality_mouth': '3', 'quality_ears': '3', 'quality_hair': '3', 'quality_neck': '3', 'facial_hair': '2.0', 'notes': None, 'race_common': 'black', 'gender_common': 'man'}",,,,,,,,,,,,,,,,,,,,,,,,,,,,,,,,,,,,,,,,,,,,,,625e185c4919524159d3b71e,625e15a9b58e919816fee4eb,6111933f9eec6b3f262f01b7
3613,625e18f8b06d664c87071fd8,Chrome,3.0,main_task,1.0,3.0,chris,"4/18/2022, 10:05:44 PM",enpzcs5vx3nem871ak5w,0.0-112.0,pilot_prolific_repeat_encoding,40,woman,151,2.0,white,00C,C,2639.0,"['../stimuli/version1_gray_lm/id018_50R_D.png', '../stimuli/version1_gray_lm/id018_50L_U.png', '../stimuli/version1_gray_lm/id151_00C_C.png']",359040.0,0.0,117.0,55.0,encoding,woman,018,"[0, 1]",white,"['50L', '50R']","['U', 'D']",,"{'muct_id': '444', 'lighting': 'w', 'race_guess': 'w', 'gender_guess': 'w', 'quality': '3', 'quality_eyes': '3', 'quality_mouth': '3', 'quality_ears': '3', 'quality_hair': '3', 'quality_neck': '3', 'facial_hair': '0.0', 'notes': None, 'race_common': 'white', 'gender_common': 'woman'}","{'muct_id': '21', 'lighting': 'q', 'race_guess': 'w', 'gender_guess': 'w', 'quality': '3', 'quality_eyes': '3', 'quality_mouth': '3', 'quality_ears': '3', 'quality_hair': '3', 'quality_neck': '3', 'facial_hair': '0.0', 'notes': None, 'race_common': 'white', 'gender_common': 'woman'}",,,,,,,,,,,,,,,,,,,,,,,,,,,,,,,,,,,,,,,,,,,,,,625e178456f03cd939f5b01d,625e15a9b58e919816fee4ea,5dcdd7bf324a3d0a6c24b608
3614,625e18fab06d664c87071fd9,Chrome,3.0,main_task,1.0,3.0,chris,"4/18/2022, 7:05:46 PM",5f5jdok8y0hcbo83uolj,0.0-44.0,pilot_prolific_repeat_encoding,40,man,122,2.0,black,00C,C,3254.0,"['../stimuli/version1_gray_lm/id098_25R_U.png', '../stimuli/version1_gray_lm/id098_25L_D.png', '../stimuli/version1_gray_lm/id122_00C_C.png']",148828.0,0.0,49.0,21.0,encoding,man,098,"[0, 1]",black,"['25R', '25L']","['U', 'D']",,"{'muct_id': '425', 'lighting': 'x', 'race_guess': 'b', 'gender_guess': 'm', 'quality': '3', 'quality_eyes': '3', 'quality_mouth': '3', 'quality_ears': '3', 'quality_hair': '3', 'quality_neck': '3', 'facial_hair': '2.0', 'notes': None, 'race_common': 'black', 'gender_common': 'man'}","{'muct_id': '274', 'lighting': 't', 'race_guess': 'b', 'gender_guess': 'm', 'quality': '3', 'quality_eyes': '3', 'quality_mouth': '3', 'quality_ears': '3', 'quality_hair': '3', 'quality_neck': '3', 'facial_hair': '4.0', 'notes': None, 'race_common': 'black', 'gender_common': 'man'}",,,,,,,,,,,,,,,,,,,,,,,,,,,,,,,,,,,,,,,,,,,,,,625e185c4919524159d3b71e,625e15a9b58e919816fee4eb,6111933f9eec6b3f262f01b7
3615,625e18fdb06d664c87071fda,Chrome,1.0,main_task,1.0,1.0,chris,"4/18/2022, 10:05:49 PM",enpzcs5vx3nem871ak5w,0.0-114.0,pilot_prolific_repeat_encoding,37,woman,133,0.0,black,50L,D,4757.0,"['../stimuli/version1_gray_lm/id133_50L_D.png', '../stimuli/version1_gray_lm/id140_25R_C.png', '../stimuli/version1_gray_lm/id140_00C_U.png']",364194.0,0.0,119.0,56.0,encoding,woman,140,"[1, 2]",black,"['25R', '00C']","['C', 'U']",,"{'muct_id': '601', 'lighting': 'y', 'race_guess': 'b', 'gender_guess': 'w', 'quality': '3', 'quality_eyes': '3', 'quality_mouth': '3', 'quality_ears': '3', 'quality_hair': '3', 'quality_neck': '3', 'facial_hair': '0.0', 'notes': 'mouth', 'race_common': 'black', 'gender_common': 'woman'}","{'muct_id': '624', 'lighting': 'y', 'race_guess': 'b', 'gender_guess': 'w', 'quality': '3', 'quality_eyes': '3', 'quality_mouth': '3', 'quality_ears': '3', 'quality_hair': '3', 'quality_neck': '3', 'facial_hair': '0.0', 'notes': 'headband, earring', 'race_common': 'black', 'gender_common': 'woman'}",,,,,,,,,,,,,,,,,,,,,,,,,,,,,,,,,,,,,,,,,,,,,,625e178456f03cd939f5b01d,625e15a9b58e919816fee4ea,5dcdd7bf324a3d0a6c24b608
3616,625e18ffb06d664c87071fdb,Chrome,1.0,main_task,1.0,1.0,chris,"4/18/2022, 7:05:51 PM",5f5jdok8y0hcbo83uolj,0.0-46.0,pilot_prolific_repeat_encoding,37,man,143,0.0,white,50L,D,4218.0,"['../stimuli/version1_gray_lm/id143_50L_D.png', '../stimuli/version1_gray_lm/id074_50R_U.png', '../stimuli/version1_gray_lm/id074_00C_C.png']",153647.0,0.0,51.0,22.0,encoding,man,074,"[1, 2]",white,"['50R', '00C']","['U', 'C']",,"{'muct_id': '90', 'lighting': 'q', 'race_guess': 'u', 'gender_guess': 'm', 'quality': '2', 'quality_eyes': '3', 'quality_mouth': '3', 'quality_ears': '2', 'quality_hair': '3', 'quality_neck': '3', 'facial_hair': '4.0', 'notes': 'beard', 'race_common': 'white', 'gender_common': 'man'}","{'muct_id': '229', 'lighting': 't', 'race_guess': 'w', 'gender_guess': 'm', 'quality': '3', 'quality_eyes': '3', 'quality_mouth': '3', 'quality_ears': '3', 'quality_hair': '3', 'quality_neck': '3', 'facial_hair': '2.0', 'notes': 'mouth', 'race_common': 'white', 'gender_common': 'man'}",,,,,,,,,,,,,,,,,,,,,,,,,,,,,,,,,,,,,,,,,,,,,,625e185c4919524159d3b71e,625e15a9b58e919816fee4eb,6111933f9eec6b3f262f01b7
3617,625e1901b06d664c87071fdc,Chrome,2.0,main_task,1.0,2.0,chris,"4/18/2022, 10:05:54 PM",enpzcs5vx3nem871ak5w,0.0-116.0,pilot_prolific_repeat_encoding,39,woman,103,1.0,black,00C,D,3727.0,"['../stimuli/version1_gray_lm/id005_25R_C.png', '../stimuli/version1_gray_lm/id103_00C_D.png', '../stimuli/version1_gray_lm/id005_50L_U.png']",368392.0,0.0,121.0,57.0,encoding,woman,005,"[0, 2]",black,"['25R', '50L']","['C', 'U']",,"{'muct_id': '285', 'lighting': 'v', 'race_guess': 'b', 'gender_guess': 'w', 'quality': '3', 'quality_eyes': '3', 'quality_mouth': '3', 'quality_ears': '3', 'quality_hair': '3', 'quality_neck': '3', 'facial_hair': '0.0', 'notes': 'earrings', 'race_common': 'black', 'gender_common': 'woman'}","{'muct_id': '5', 'lighting': 'q', 'race_guess': 'b', 'gender_guess': 'w', 'quality': '3', 'quality_eyes': '3', 'quality_mouth': '3', 'quality_ears': '3', 'quality_hair': '3', 'quality_neck': '3', 'facial_hair': '0.0', 'notes': 'hat', 'race_common': 'black', 'gender_common': 'woman'}",,,,,,,,,,,,,,,,,,,,,,,,,,,,,,,,,,,,,,,,,,,,,,625e178456f03cd939f5b01d,625e15a9b58e919816fee4ea,5dcdd7bf324a3d0a6c24b608
3618,625e1903b06d664c87071fdd,Chrome,2.0,main_task,1.0,2.0,chris,"4/18/2022, 7:05:55 PM",5f5jdok8y0hcbo83uolj,0.0-48.0,pilot_prolific_repeat_encoding,39,woman,141,1.0,white,50R,D,3643.0,"['../stimuli/version1_gray_lm/id088_50L_C.png', '../stimuli/version1_gray_lm/id141_50R_D.png', '../stimuli/version1_gray_lm/id088_00C_U.png']",157786.0,0.0,53.0,23.0,encoding,woman,088,"[0, 2]",white,"['50L', '00C']","['C', 'U']",,"{'muct_id': '77', 'lighting': 's', 'race_guess': 'w', 'gender_guess': 'w', 'quality': '3', 'quality_eyes': '3', 'quality_mouth': '3', 'quality_ears': '3', 'quality_hair': '3', 'quality_neck': '3', 'facial_hair': '0.0', 'notes': None, 'race_common': 'white', 'gender_common': 'woman'}","{'muct_id': '252', 'lighting': 't', 'race_guess': 'w', 'gender_guess': 'w', 'quality': '3', 'quality_eyes': '3', 'quality_mouth': '3', 'quality_ears': '3', 'quality_hair': '3', 'quality_neck': '3', 'facial_hair': '0.0', 'notes': 'hair', 'race_common': 'white', 'gender_common': 'woman'}",,,,,,,,,,,,,,,,,,,,,,,,,,,,,,,,,,,,,,,,,,,,,,625e185c4919524159d3b71e,625e15a9b58e919816fee4eb,6111933f9eec6b3f262f01b7
3619,625e1906b06d664c87071fde,Chrome,1.0,main_task,1.0,1.0,chris,"4/18/2022, 7:05:58 PM",5f5jdok8y0hcbo83uolj,0.0-50.0,pilot_prolific_repeat_encoding,37,man,124,0.0,black,00C,U,2023.0,"['../stimuli/version1_gray_lm/id124_00C_U.png', '../stimuli/version1_gray_lm/id055_25R_D.png', '../stimuli/version1_gray_lm/id055_25L_C.png']",160321.0,0.0,55.0,24.0,encoding,man,055,"[1, 2]",black,"['25R', '25L']","['D', 'C']",,"{'muct_id': '431', 'lighting': 'x', 'race_guess': 'b', 'gender_guess': 'u', 'quality': '3', 'quality_eyes': '3', 'quality_mouth': '3', 'quality_ears': '3', 'quality_hair': '3', 'quality_neck': '3', 'facial_hair': '0.0', 'notes': 'mouth', 'race_common': 'black', 'gender_common': 'man'}","{'muct_id': '81', 'lighting': 'q', 'race_guess': 'b', 'gender_guess': 'm', 'quality': '3', 'quality_eyes': '3', 'quality_mouth': '3', 'quality_ears': '3', 'quality_hair': '3', 'quality_neck': '3', 'facial_hair': '0.0', 'notes': None, 'race_common': 'black', 'gender_common': 'man'}",,,,,,,,,,,,,,,,,,,,,,,,,,,,,,,,,,,,,,,,,,,,,,625e185c4919524159d3b71e,625e15a9b58e919816fee4eb,6111933f9eec6b3f262f01b7
3620,625e1906b06d664c87071fdf,Chrome,1.0,main_task,1.0,1.0,chris,"4/18/2022, 10:05:58 PM",enpzcs5vx3nem871ak5w,0.0-118.0,pilot_prolific_repeat_encoding,37,man,146,0.0,white,00C,C,3765.0,"['../stimuli/version1_gray_lm/id146_00C_C.png', '../stimuli/version1_gray_lm/id092_25R_D.png', '../stimuli/version1_gray_lm/id092_50L_U.png']",372461.0,0.0,123.0,58.0,encoding,man,092,"[1, 2]",white,"['50L', '25R']","['U', 'D']",,"{'muct_id': '254', 'lighting': 'v', 'race_guess': 'w', 'gender_guess': 'm', 'quality': '2', 'quality_eyes': '2', 'quality_mouth': '3', 'quality_ears': '3', 'quality_hair': '2', 'quality_neck': '3', 'facial_hair': '0.0', 'notes': 'hair', 'race_common': 'white', 'gender_common': 'man'}","{'muct_id': '261', 'lighting': 'v', 'race_guess': 'w', 'gender_guess': 'm', 'quality': '2', 'quality_eyes': '2', 'quality_mouth': '3', 'quality_ears': '3', 'quality_hair': '3', 'quality_neck': '3', 'facial_hair': '0.0', 'notes': None, 'race_common': 'white', 'gender_common': 'man'}",,,,,,,,,,,,,,,,,,,,,,,,,,,,,,,,,,,,,,,,,,,,,,625e178456f03cd939f5b01d,625e15a9b58e919816fee4ea,5dcdd7bf324a3d0a6c24b608
3621,625e1908b06d664c87071fe0,Chrome,1.0,main_task,1.0,1.0,chris,"4/18/2022, 7:06:00 PM",5f5jdok8y0hcbo83uolj,0.0-52.0,pilot_prolific_repeat_encoding,37,man,146,0.0,white,00C,U,2072.0,"['../stimuli/version1_gray_lm/id146_00C_U.png', '../stimuli/version1_gray_lm/id032_50R_C.png', '../stimuli/version1_gray_lm/id032_25L_D.png']",162944.0,0.0,57.0,25.0,encoding,man,032,"[1, 2]",white,"['50R', '25L']","['C', 'D']",,"{'muct_id': '254', 'lighting': 'v', 'race_guess': 'w', 'gender_guess': 'm', 'quality': '2', 'quality_eyes': '2', 'quality_mouth': '3', 'quality_ears': '3', 'quality_hair': '2', 'quality_neck': '3', 'facial_hair': '0.0', 'notes': 'hair', 'race_common': 'white', 'gender_common': 'man'}","{'muct_id': '43', 'lighting': 'q', 'race_guess': 'w', 'gender_guess': 'm', 'quality': '3', 'quality_eyes': '3', 'quality_mouth': '3', 'quality_ears': '3', 'quality_hair': '3', 'quality_neck': '3', 'facial_hair': '0.0', 'notes': None, 'race_common': 'white', 'gender_common': 'man'}",,,,,,,,,,,,,,,,,,,,,,,,,,,,,,,,,,,,,,,,,,,,,,625e185c4919524159d3b71e,625e15a9b58e919816fee4eb,6111933f9eec6b3f262f01b7
3622,625e1909b06d664c87071fe1,Chrome,3.0,main_task,1.0,3.0,chris,"4/18/2022, 10:06:01 PM",enpzcs5vx3nem871ak5w,0.0-120.0,pilot_prolific_repeat_encoding,40,man,119,2.0,black,25R,U,3198.0,"['../stimuli/version1_gray_lm/id030_00C_C.png', '../stimuli/version1_gray_lm/id030_50L_D.png', '../stimuli/version1_gray_lm/id119_25R_U.png']",376136.0,0.0,125.0,59.0,encoding,man,030,"[0, 1]",black,"['00C', '50L']","['C', 'D']",,"{'muct_id': '420', 'lighting': 'w', 'race_guess': 'b', 'gender_guess': 'm', 'quality': '3', 'quality_eyes': '3', 'quality_mouth': '3', 'quality_ears': '3', 'quality_hair': '3', 'quality_neck': '3', 'facial_hair': '0.0', 'notes': None, 'race_common': 'black', 'gender_common': 'man'}","{'muct_id': '41', 'lighting': 'r', 'race_guess': 'b', 'gender_guess': 'm', 'quality': '3', 'quality_eyes': '3', 'quality_mouth': '3', 'quality_ears': '3', 'quality_hair': '3', 'quality_neck': '3', 'facial_hair': '0.0', 'notes': None, 'race_common': 'black', 'gender_common': 'man'}",,,,,,,,,,,,,,,,,,,,,,,,,,,,,,,,,,,,,,,,,,,,,,625e178456f03cd939f5b01d,625e15a9b58e919816fee4ea,5dcdd7bf324a3d0a6c24b608
3623,625e190bb06d664c87071fe2,Chrome,3.0,main_task,1.0,3.0,chris,"4/18/2022, 7:06:03 PM",5f5jdok8y0hcbo83uolj,0.0-54.0,pilot_prolific_repeat_encoding,40,woman,127,2.0,black,00C,U,2466.0,"['../stimuli/version1_gray_lm/id019_50R_C.png', '../stimuli/version1_gray_lm/id019_50L_D.png', '../stimuli/version1_gray_lm/id127_00C_U.png']",166058.0,0.0,59.0,26.0,encoding,woman,019,"[0, 1]",black,"['50R', '50L']","['C', 'D']",,"{'muct_id': '435', 'lighting': 'x', 'race_guess': 'b', 'gender_guess': 'w', 'quality': '3', 'quality_eyes': '3', 'quality_mouth': '3', 'quality_ears': '3', 'quality_hair': '3', 'quality_neck': '3', 'facial_hair': '0.0', 'notes': 'bandana', 'race_common': 'black', 'gender_common': 'woman'}","{'muct_id': '23', 'lighting': 'q', 'race_guess': 'b', 'gender_guess': 'u', 'quality': '3', 'quality_eyes': '3', 'quality_mouth': '3', 'quality_ears': '3', 'quality_hair': '3', 'quality_neck': '3', 'facial_hair': '0.0', 'notes': None, 'race_common': 'black', 'gender_common': 'woman'}",,,,,,,,,,,,,,,,,,,,,,,,,,,,,,,,,,,,,,,,,,,,,,625e185c4919524159d3b71e,625e15a9b58e919816fee4eb,6111933f9eec6b3f262f01b7
