,_id,browser,choice,collection,correct,correct_response,database,datetime,experiment_id,internal_node_id,iteration,key_press,oddity_gender,oddity_identity,oddity_index,oddity_race,oddity_tiltLR,oddity_tiltUD,rt,stimulus,time_elapsed,timed_out,trial_index,trial_number,trial_type,typicals_gender,typicals_identity,typicals_indices,typicals_race,typicals_tiltsLR,typicals_tiltsUD,practice_threshold_met,oddity_meta,typicals_meta,button_pressed,last_trial_type,prediction,choice_category,choice_object,oddity_category,oddity_name,oddity_type,stimulus_response_map,typical_category,typical_indices,typical_name,variation_level,encoding_pair,encoding_type,gender,identity,meta,original_index,original_tiltLR,original_tiltUD,race,response,retrieval_condition,tiltLR,tiltUD,tilt_change,tilt_difference,original_tilt,encoding_accuracy,encoding_avg_rt,encoding_n_trials,experimental_duration,filler_accuracy,filler_avg_rt,filler_n_trials,params,retrieval_accuracy,retrieval_avg_rt,retrieval_n_trials,total_bonus,total_payment,age,gender_other,latinx,session_id,study_id,subject_id,meta_new,meta_old,new_gender,new_identity,new_index,new_race,new_tiltLR,new_tiltUD,old_encoding_pair,old_encoding_type,old_gender,old_identity,old_index,old_original_index,old_original_tiltLR,old_original_tiltUD,old_race,old_tiltLR,old_tiltUD,stimuli,oddity_mb,typicals_mb,new_mb,old_mb,old_tilt_change,old_tilt_difference
20873,6275583a1a371c538416ce45,Chrome,2.0,main_task,1.0,2.0,chris,"5/6/2022, 1:17:46 PM",fk0tx48d0yco5xjacw9q,0.0-2.0-0.0,pilot_prolific_afc_0_25,39,woman,048,1.0,latinx,25R,C,1622,"['../stimuli/version1_gray_lm/id130_25L_U.png', '../stimuli/version1_gray_lm/id048_25R_C.png', '../stimuli/version1_gray_lm/id130_00C_D.png']",46641.0,0.0,2.0,1.0,encoding_practice,woman,130,"[0, 2]",latinx,"['25L', '00C']","['U', 'D']",,,,,,,,,,,,,,,,,,,,,,,,,,,,,,,,,,,,,,,,,,,,,,,,,627557f2a4d61882cd69ee60,6270a134c9156018b145dc21,594ad91fa6fb8200018f720c,,,,,,,,,,,,,,,,,,,,,0.7797645330429077,"[0.8352316617965698, 0.9049838781356812]",,,,
20874,627558401a371c538416ce46,Chrome,2.0,main_task,1.0,2.0,chris,"5/6/2022, 1:17:52 PM",fk0tx48d0yco5xjacw9q,0.0-2.1-0.1,pilot_prolific_afc_0_25,39,woman,048,1.0,latinx,00C,C,3565,"['../stimuli/version1_gray_lm/id023_25L_U.png', '../stimuli/version1_gray_lm/id048_00C_C.png', '../stimuli/version1_gray_lm/id023_25R_D.png']",52292.0,0.0,4.0,2.0,encoding_practice,man,023,"[0, 2]",latinx,"['25L', '25R']","['U', 'D']",,,,,,,,,,,,,,,,,,,,,,,,,,,,,,,,,,,,,,,,,,,,,,,,,627557f2a4d61882cd69ee60,6270a134c9156018b145dc21,594ad91fa6fb8200018f720c,,,,,,,,,,,,,,,,,,,,,0.8234363794326782,"[0.7652738690376282, 0.8539820313453674]",,,,
20875,627558421a371c538416ce47,Chrome,1.0,main_task,1.0,1.0,chris,"5/6/2022, 1:17:54 PM",fk0tx48d0yco5xjacw9q,0.0-2.2-0.2,pilot_prolific_afc_0_25,37,woman,130,0.0,latinx,00C,C,1444,"['../stimuli/version1_gray_lm/id130_00C_C.png', '../stimuli/version1_gray_lm/id023_25L_D.png', '../stimuli/version1_gray_lm/id023_25R_U.png']",54324.0,0.0,6.0,3.0,encoding_practice,man,023,"[1, 2]",latinx,"['25L', '25R']","['D', 'U']",1.0,,,,,,,,,,,,,,,,,,,,,,,,,,,,,,,,,,,,,,,,,,,,,,,,627557f2a4d61882cd69ee60,6270a134c9156018b145dc21,594ad91fa6fb8200018f720c,,,,,,,,,,,,,,,,,,,,,0.880339503288269,"[0.8447763323783875, 0.8266948461532593]",,,,
20876,627558491a371c538416ce48,Chrome,1.0,main_task,1.0,1.0,chris,"5/6/2022, 1:18:01 PM",fk0tx48d0yco5xjacw9q,0.0-4.0,pilot_prolific_afc_0_25,37,man,039,0.0,white,25R,D,1524,"['../stimuli/version1_gray_lm/id039_25R_D.png', '../stimuli/version1_gray_lm/id053_00C_U.png', '../stimuli/version1_gray_lm/id053_25L_C.png']",61516.0,0.0,9.0,1.0,encoding,man,053,"[1, 2]",white,"['00C', '25L']","['U', 'C']",,"{'muct_id': '52', 'lighting': 'q', 'race_guess': 'w', 'gender_guess': 'm', 'quality': '3', 'quality_eyes': '3', 'quality_mouth': '3', 'quality_ears': '3', 'quality_hair': '3', 'quality_neck': '3', 'facial_hair': '0.0', 'notes': None, 'race_common': 'white', 'gender_common': 'man'}","{'muct_id': '79', 'lighting': 'r', 'race_guess': 'i', 'gender_guess': 'm', 'quality': '2', 'quality_eyes': '2', 'quality_mouth': '3', 'quality_ears': '3', 'quality_hair': '2', 'quality_neck': '3', 'facial_hair': '0.0', 'notes': None, 'race_common': 'white', 'gender_common': 'man'}",,,,,,,,,,,,,,,,,,,,,,,,,,,,,,,,,,,,,,,,,,,,,,627557f2a4d61882cd69ee60,6270a134c9156018b145dc21,594ad91fa6fb8200018f720c,,,,,,,,,,,,,,,,,,,,,0.8444046378135681,"[0.8477749824523926, 0.879274845123291]",,,,
20877,6275584a1a371c538416ce49,Chrome,3.0,main_task,1.0,3.0,chris,"5/6/2022, 1:18:03 PM",fk0tx48d0yco5xjacw9q,0.0-6.0,pilot_prolific_afc_0_25,40,man,012,2.0,white,25R,U,1017,"['../stimuli/version1_gray_lm/id073_25L_D.png', '../stimuli/version1_gray_lm/id073_00C_C.png', '../stimuli/version1_gray_lm/id012_25R_U.png']",63147.0,0.0,11.0,2.0,encoding,man,073,"[0, 1]",white,"['25L', '00C']","['D', 'C']",,"{'muct_id': '12', 'lighting': 'q', 'race_guess': 'i', 'gender_guess': 'm', 'quality': '3', 'quality_eyes': '3', 'quality_mouth': '3', 'quality_ears': '3', 'quality_hair': '3', 'quality_neck': '3', 'facial_hair': '2.0', 'notes': None, 'race_common': 'white', 'gender_common': 'man'}","{'muct_id': '225', 'lighting': 'u', 'race_guess': 'w', 'gender_guess': 'm', 'quality': '3', 'quality_eyes': '3', 'quality_mouth': '3', 'quality_ears': '3', 'quality_hair': '3', 'quality_neck': '3', 'facial_hair': '2.0', 'notes': None, 'race_common': 'white', 'gender_common': 'man'}",,,,,,,,,,,,,,,,,,,,,,,,,,,,,,,,,,,,,,,,,,,,,,627557f2a4d61882cd69ee60,6270a134c9156018b145dc21,594ad91fa6fb8200018f720c,,,,,,,,,,,,,,,,,,,,,0.8580827713012695,"[0.8398234844207764, 0.8617779016494751]",,,,
20878,6275584d1a371c538416ce4a,Chrome,1.0,main_task,1.0,1.0,chris,"5/6/2022, 1:18:05 PM",fk0tx48d0yco5xjacw9q,0.0-8.0,pilot_prolific_afc_0_25,37,man,064,0.0,black,25R,U,1962,"['../stimuli/version1_gray_lm/id064_25R_U.png', '../stimuli/version1_gray_lm/id117_25L_D.png', '../stimuli/version1_gray_lm/id117_00C_C.png']",65679.0,0.0,13.0,3.0,encoding,man,117,"[1, 2]",black,"['25L', '00C']","['D', 'C']",,"{'muct_id': '204', 'lighting': 't', 'race_guess': 'b', 'gender_guess': 'm', 'quality': '3', 'quality_eyes': '3', 'quality_mouth': '3', 'quality_ears': '3', 'quality_hair': '3', 'quality_neck': '3', 'facial_hair': '1.0', 'notes': None, 'race_common': 'black', 'gender_common': 'man'}","{'muct_id': '417', 'lighting': 'w', 'race_guess': 'b', 'gender_guess': 'm', 'quality': '3', 'quality_eyes': '3', 'quality_mouth': '3', 'quality_ears': '3', 'quality_hair': '3', 'quality_neck': '3', 'facial_hair': '1.0', 'notes': 'mouth', 'race_common': 'black', 'gender_common': 'man'}",,,,,,,,,,,,,,,,,,,,,,,,,,,,,,,,,,,,,,,,,,,,,,627557f2a4d61882cd69ee60,6270a134c9156018b145dc21,594ad91fa6fb8200018f720c,,,,,,,,,,,,,,,,,,,,,0.7903277277946472,"[0.8990145921707153, 0.8551556468009949]",,,,
20879,6275584f1a371c538416ce4b,Chrome,2.0,main_task,1.0,2.0,chris,"5/6/2022, 1:18:08 PM",fk0tx48d0yco5xjacw9q,0.0-10.0,pilot_prolific_afc_0_25,39,man,112,1.0,black,25L,C,1897,"['../stimuli/version1_gray_lm/id081_00C_U.png', '../stimuli/version1_gray_lm/id112_25L_C.png', '../stimuli/version1_gray_lm/id081_25R_D.png']",68003.0,0.0,15.0,4.0,encoding,man,081,"[0, 2]",black,"['00C', '25R']","['U', 'D']",,"{'muct_id': '406', 'lighting': 'w', 'race_guess': 'b', 'gender_guess': 'm', 'quality': '3', 'quality_eyes': '3', 'quality_mouth': '3', 'quality_ears': '3', 'quality_hair': '3', 'quality_neck': '3', 'facial_hair': '1.0', 'notes': None, 'race_common': 'black', 'gender_common': 'man'}","{'muct_id': '241', 'lighting': 't', 'race_guess': 'u', 'gender_guess': 'm', 'quality': '3', 'quality_eyes': '3', 'quality_mouth': '3', 'quality_ears': '3', 'quality_hair': '3', 'quality_neck': '3', 'facial_hair': '1.0', 'notes': 'mouth', 'race_common': 'black', 'gender_common': 'man'}",,,,,,,,,,,,,,,,,,,,,,,,,,,,,,,,,,,,,,,,,,,,,,627557f2a4d61882cd69ee60,6270a134c9156018b145dc21,594ad91fa6fb8200018f720c,,,,,,,,,,,,,,,,,,,,,0.8308467864990234,"[0.7884091734886169, 0.8508874773979187]",,,,
20880,627558511a371c538416ce4c,Chrome,3.0,main_task,1.0,3.0,chris,"5/6/2022, 1:18:10 PM",fk0tx48d0yco5xjacw9q,0.0-12.0,pilot_prolific_afc_0_25,40,woman,152,2.0,white,00C,C,1653,"['../stimuli/version1_gray_lm/id141_25R_D.png', '../stimuli/version1_gray_lm/id141_25L_U.png', '../stimuli/version1_gray_lm/id152_00C_C.png']",70129.0,0.0,17.0,5.0,encoding,woman,141,"[0, 1]",white,"['25R', '25L']","['D', 'U']",,"{'muct_id': '446', 'lighting': 'w', 'race_guess': 'w', 'gender_guess': 'w', 'quality': '3', 'quality_eyes': '3', 'quality_mouth': '3', 'quality_ears': '3', 'quality_hair': '3', 'quality_neck': '3', 'facial_hair': '0.0', 'notes': None, 'race_common': 'white', 'gender_common': 'woman'}","{'muct_id': '77', 'lighting': 's', 'race_guess': 'w', 'gender_guess': 'w', 'quality': '3', 'quality_eyes': '3', 'quality_mouth': '3', 'quality_ears': '3', 'quality_hair': '3', 'quality_neck': '3', 'facial_hair': '0.0', 'notes': None, 'race_common': 'white', 'gender_common': 'woman'}",,,,,,,,,,,,,,,,,,,,,,,,,,,,,,,,,,,,,,,,,,,,,,627557f2a4d61882cd69ee60,6270a134c9156018b145dc21,594ad91fa6fb8200018f720c,,,,,,,,,,,,,,,,,,,,,0.8687135577201843,"[0.7930634617805481, 0.8664644360542297]",,,,
20881,627558531a371c538416ce4d,Chrome,1.0,main_task,1.0,1.0,chris,"5/6/2022, 1:18:12 PM",fk0tx48d0yco5xjacw9q,0.0-14.0,pilot_prolific_afc_0_25,37,man,049,0.0,white,00C,U,1388,"['../stimuli/version1_gray_lm/id049_00C_U.png', '../stimuli/version1_gray_lm/id037_25R_C.png', '../stimuli/version1_gray_lm/id037_25L_D.png']",71938.0,0.0,19.0,6.0,encoding,man,037,"[1, 2]",white,"['25R', '25L']","['C', 'D']",,"{'muct_id': '66', 'lighting': 'r', 'race_guess': 'w', 'gender_guess': 'm', 'quality': '3', 'quality_eyes': '3', 'quality_mouth': '3', 'quality_ears': '3', 'quality_hair': '3', 'quality_neck': '3', 'facial_hair': '0.0', 'notes': None, 'race_common': 'white', 'gender_common': 'man'}","{'muct_id': '48', 'lighting': 'w', 'race_guess': 'w', 'gender_guess': 'm', 'quality': '3', 'quality_eyes': '3', 'quality_mouth': '3', 'quality_ears': '3', 'quality_hair': '3', 'quality_neck': '3', 'facial_hair': '0.0', 'notes': None, 'race_common': 'white', 'gender_common': 'man'}",,,,,,,,,,,,,,,,,,,,,,,,,,,,,,,,,,,,,,,,,,,,,,627557f2a4d61882cd69ee60,6270a134c9156018b145dc21,594ad91fa6fb8200018f720c,,,,,,,,,,,,,,,,,,,,,0.8720439672470093,"[0.7963417768478394, 0.8619772791862488]",,,,
20882,627558551a371c538416ce4e,Chrome,3.0,main_task,1.0,3.0,chris,"5/6/2022, 1:18:13 PM",fk0tx48d0yco5xjacw9q,0.0-16.0,pilot_prolific_afc_0_25,40,man,090,2.0,black,25L,D,1293,"['../stimuli/version1_gray_lm/id139_25R_C.png', '../stimuli/version1_gray_lm/id139_00C_U.png', '../stimuli/version1_gray_lm/id090_25L_D.png']",73622.0,0.0,21.0,7.0,encoding,man,139,"[0, 1]",black,"['25R', '00C']","['C', 'U']",,"{'muct_id': '259', 'lighting': 'v', 'race_guess': 'b', 'gender_guess': 'm', 'quality': '3', 'quality_eyes': '3', 'quality_mouth': '3', 'quality_ears': '3', 'quality_hair': '3', 'quality_neck': '3', 'facial_hair': '2.0', 'notes': None, 'race_common': 'black', 'gender_common': 'man'}","{'muct_id': '623', 'lighting': 'y', 'race_guess': 'b', 'gender_guess': 'm', 'quality': '3', 'quality_eyes': '3', 'quality_mouth': '3', 'quality_ears': '3', 'quality_hair': '3', 'quality_neck': '3', 'facial_hair': '1.0', 'notes': 'mouth', 'race_common': 'black', 'gender_common': 'man'}",,,,,,,,,,,,,,,,,,,,,,,,,,,,,,,,,,,,,,,,,,,,,,627557f2a4d61882cd69ee60,6270a134c9156018b145dc21,594ad91fa6fb8200018f720c,,,,,,,,,,,,,,,,,,,,,0.8555980324745178,"[0.8236911296844482, 0.8302584886550903]",,,,
20883,627558571a371c538416ce4f,Chrome,1.0,main_task,1.0,1.0,chris,"5/6/2022, 1:18:15 PM",fk0tx48d0yco5xjacw9q,0.0-18.0,pilot_prolific_afc_0_25,37,man,056,0.0,black,25R,D,1256,"['../stimuli/version1_gray_lm/id056_25R_D.png', '../stimuli/version1_gray_lm/id033_25L_U.png', '../stimuli/version1_gray_lm/id033_00C_C.png']",75311.0,0.0,23.0,8.0,encoding,man,033,"[1, 2]",black,"['25L', '00C']","['U', 'C']",,"{'muct_id': '82', 'lighting': 'q', 'race_guess': 'b', 'gender_guess': 'm', 'quality': '3', 'quality_eyes': '3', 'quality_mouth': '3', 'quality_ears': '3', 'quality_hair': '3', 'quality_neck': '3', 'facial_hair': '1.0', 'notes': None, 'race_common': 'black', 'gender_common': 'man'}","{'muct_id': '44', 'lighting': 'q', 'race_guess': 'u', 'gender_guess': 'm', 'quality': '3', 'quality_eyes': '3', 'quality_mouth': '3', 'quality_ears': '3', 'quality_hair': '3', 'quality_neck': '3', 'facial_hair': '2.0', 'notes': None, 'race_common': 'black', 'gender_common': 'man'}",,,,,,,,,,,,,,,,,,,,,,,,,,,,,,,,,,,,,,,,,,,,,,627557f2a4d61882cd69ee60,6270a134c9156018b145dc21,594ad91fa6fb8200018f720c,,,,,,,,,,,,,,,,,,,,,0.8599368333816528,"[0.8084548115730286, 0.8465643525123596]",,,,
20884,6275585a1a371c538416ce50,Chrome,1.0,main_task,1.0,1.0,chris,"5/6/2022, 1:18:18 PM",fk0tx48d0yco5xjacw9q,0.0-20.0,pilot_prolific_afc_0_25,37,man,041,0.0,white,25R,U,2448,"['../stimuli/version1_gray_lm/id041_25R_U.png', '../stimuli/version1_gray_lm/id034_00C_D.png', '../stimuli/version1_gray_lm/id034_25L_C.png']",78272.0,0.0,25.0,9.0,encoding,man,034,"[1, 2]",white,"['00C', '25L']","['D', 'C']",,"{'muct_id': '56', 'lighting': 'q', 'race_guess': 'w', 'gender_guess': 'm', 'quality': '3', 'quality_eyes': '3', 'quality_mouth': '3', 'quality_ears': '3', 'quality_hair': '3', 'quality_neck': '3', 'facial_hair': '0.0', 'notes': None, 'race_common': 'white', 'gender_common': 'man'}","{'muct_id': '45', 'lighting': 'q', 'race_guess': 'w', 'gender_guess': 'm', 'quality': '3', 'quality_eyes': '3', 'quality_mouth': '3', 'quality_ears': '3', 'quality_hair': '3', 'quality_neck': '3', 'facial_hair': '0.0', 'notes': None, 'race_common': 'white', 'gender_common': 'man'}",,,,,,,,,,,,,,,,,,,,,,,,,,,,,,,,,,,,,,,,,,,,,,627557f2a4d61882cd69ee60,6270a134c9156018b145dc21,594ad91fa6fb8200018f720c,,,,,,,,,,,,,,,,,,,,,0.8482251167297363,"[0.8462475538253784, 0.8475770950317383]",,,,
20885,6275585d1a371c538416ce51,Chrome,3.0,main_task,1.0,3.0,chris,"5/6/2022, 1:18:21 PM",fk0tx48d0yco5xjacw9q,0.0-22.0,pilot_prolific_afc_0_25,40,man,086,2.0,black,00C,C,2713,"['../stimuli/version1_gray_lm/id040_25L_U.png', '../stimuli/version1_gray_lm/id040_25R_D.png', '../stimuli/version1_gray_lm/id086_00C_C.png']",81307.0,0.0,27.0,10.0,encoding,man,040,"[0, 1]",black,"['25L', '25R']","['U', 'D']",,"{'muct_id': '250', 'lighting': 't', 'race_guess': 'b', 'gender_guess': 'm', 'quality': '3', 'quality_eyes': '3', 'quality_mouth': '3', 'quality_ears': '3', 'quality_hair': '3', 'quality_neck': '3', 'facial_hair': '1.0', 'notes': None, 'race_common': 'black', 'gender_common': 'man'}","{'muct_id': '55', 'lighting': 'r', 'race_guess': 'b', 'gender_guess': 'm', 'quality': '3', 'quality_eyes': '3', 'quality_mouth': '3', 'quality_ears': '3', 'quality_hair': '3', 'quality_neck': '3', 'facial_hair': '3.0', 'notes': 'beard', 'race_common': 'black', 'gender_common': 'man'}",,,,,,,,,,,,,,,,,,,,,,,,,,,,,,,,,,,,,,,,,,,,,,627557f2a4d61882cd69ee60,6270a134c9156018b145dc21,594ad91fa6fb8200018f720c,,,,,,,,,,,,,,,,,,,,,0.8492510318756104,"[0.832576334476471, 0.8318915367126465]",,,,
20886,6275585e1a371c538416ce52,Chrome,1.0,main_task,1.0,1.0,chris,"5/6/2022, 1:18:23 PM",fk0tx48d0yco5xjacw9q,0.0-24.0,pilot_prolific_afc_0_25,37,man,092,0.0,white,25L,D,1416,"['../stimuli/version1_gray_lm/id092_25L_D.png', '../stimuli/version1_gray_lm/id043_00C_U.png', '../stimuli/version1_gray_lm/id043_25R_C.png']",83026.0,0.0,29.0,11.0,encoding,man,043,"[1, 2]",white,"['00C', '25R']","['U', 'C']",,"{'muct_id': '261', 'lighting': 'v', 'race_guess': 'w', 'gender_guess': 'm', 'quality': '2', 'quality_eyes': '2', 'quality_mouth': '3', 'quality_ears': '3', 'quality_hair': '3', 'quality_neck': '3', 'facial_hair': '0.0', 'notes': None, 'race_common': 'white', 'gender_common': 'man'}","{'muct_id': '58', 'lighting': 'q', 'race_guess': 'w', 'gender_guess': 'm', 'quality': '3', 'quality_eyes': '3', 'quality_mouth': '3', 'quality_ears': '3', 'quality_hair': '3', 'quality_neck': '3', 'facial_hair': '0.0', 'notes': None, 'race_common': 'white', 'gender_common': 'man'}",,,,,,,,,,,,,,,,,,,,,,,,,,,,,,,,,,,,,,,,,,,,,,627557f2a4d61882cd69ee60,6270a134c9156018b145dc21,594ad91fa6fb8200018f720c,,,,,,,,,,,,,,,,,,,,,0.8251421451568604,"[0.8197089433670044, 0.8104504346847534]",,,,
20887,627558601a371c538416ce53,Chrome,3.0,main_task,1.0,3.0,chris,"5/6/2022, 1:18:25 PM",fk0tx48d0yco5xjacw9q,0.0-26.0,pilot_prolific_afc_0_25,40,man,083,2.0,black,25R,U,1702,"['../stimuli/version1_gray_lm/id055_00C_D.png', '../stimuli/version1_gray_lm/id055_25L_C.png', '../stimuli/version1_gray_lm/id083_25R_U.png']",85026.0,0.0,31.0,12.0,encoding,man,055,"[0, 1]",black,"['00C', '25L']","['D', 'C']",,"{'muct_id': '243', 'lighting': 'v', 'race_guess': 'b', 'gender_guess': 'm', 'quality': '3', 'quality_eyes': '3', 'quality_mouth': '3', 'quality_ears': '3', 'quality_hair': '3', 'quality_neck': '3', 'facial_hair': '0.0', 'notes': None, 'race_common': 'black', 'gender_common': 'man'}","{'muct_id': '81', 'lighting': 'q', 'race_guess': 'b', 'gender_guess': 'm', 'quality': '3', 'quality_eyes': '3', 'quality_mouth': '3', 'quality_ears': '3', 'quality_hair': '3', 'quality_neck': '3', 'facial_hair': '0.0', 'notes': None, 'race_common': 'black', 'gender_common': 'man'}",,,,,,,,,,,,,,,,,,,,,,,,,,,,,,,,,,,,,,,,,,,,,,627557f2a4d61882cd69ee60,6270a134c9156018b145dc21,594ad91fa6fb8200018f720c,,,,,,,,,,,,,,,,,,,,,0.750024139881134,"[0.8451516032218933, 0.8695303797721863]",,,,
20888,627558621a371c538416ce54,Chrome,2.0,main_task,1.0,2.0,chris,"5/6/2022, 1:18:27 PM",fk0tx48d0yco5xjacw9q,0.0-28.0,pilot_prolific_afc_0_25,39,woman,051,1.0,white,25R,D,1519,"['../stimuli/version1_gray_lm/id101_00C_U.png', '../stimuli/version1_gray_lm/id051_25R_D.png', '../stimuli/version1_gray_lm/id101_25L_C.png']",86841.0,0.0,33.0,13.0,encoding,woman,101,"[0, 2]",white,"['00C', '25L']","['U', 'C']",,"{'muct_id': '74', 'lighting': 'q', 'race_guess': 'w', 'gender_guess': 'w', 'quality': '3', 'quality_eyes': '3', 'quality_mouth': '3', 'quality_ears': '3', 'quality_hair': '3', 'quality_neck': '3', 'facial_hair': '0.0', 'notes': None, 'race_common': 'white', 'gender_common': 'woman'}","{'muct_id': '281', 'lighting': 't', 'race_guess': 'w', 'gender_guess': 'w', 'quality': '3', 'quality_eyes': '3', 'quality_mouth': '3', 'quality_ears': '3', 'quality_hair': '3', 'quality_neck': '3', 'facial_hair': '0.0', 'notes': None, 'race_common': 'white', 'gender_common': 'woman'}",,,,,,,,,,,,,,,,,,,,,,,,,,,,,,,,,,,,,,,,,,,,,,627557f2a4d61882cd69ee60,6270a134c9156018b145dc21,594ad91fa6fb8200018f720c,,,,,,,,,,,,,,,,,,,,,0.846146285533905,"[0.8529199957847595, 0.8769526481628418]",,,,
20889,627558641a371c538416ce55,Chrome,3.0,main_task,1.0,3.0,chris,"5/6/2022, 1:18:29 PM",fk0tx48d0yco5xjacw9q,0.0-30.0,pilot_prolific_afc_0_25,40,woman,068,2.0,black,00C,C,1755,"['../stimuli/version1_gray_lm/id077_25L_U.png', '../stimuli/version1_gray_lm/id077_25R_D.png', '../stimuli/version1_gray_lm/id068_00C_C.png']",88862.0,0.0,35.0,14.0,encoding,woman,077,"[0, 1]",black,"['25L', '25R']","['U', 'D']",,"{'muct_id': '213', 'lighting': 'u', 'race_guess': 'b', 'gender_guess': 'w', 'quality': '3', 'quality_eyes': '3', 'quality_mouth': '3', 'quality_ears': '3', 'quality_hair': '3', 'quality_neck': '3', 'facial_hair': '0.0', 'notes': None, 'race_common': 'black', 'gender_common': 'woman'}","{'muct_id': '235', 'lighting': 'u', 'race_guess': 'b', 'gender_guess': 'w', 'quality': '3', 'quality_eyes': '3', 'quality_mouth': '3', 'quality_ears': '3', 'quality_hair': '3', 'quality_neck': '3', 'facial_hair': '0.0', 'notes': 'earrings', 'race_common': 'black', 'gender_common': 'woman'}",,,,,,,,,,,,,,,,,,,,,,,,,,,,,,,,,,,,,,,,,,,,,,627557f2a4d61882cd69ee60,6270a134c9156018b145dc21,594ad91fa6fb8200018f720c,,,,,,,,,,,,,,,,,,,,,0.8297914862632751,"[0.8132347464561462, 0.8321653008460999]",,,,
20890,627558661a371c538416ce56,Chrome,2.0,main_task,0.0,1.0,chris,"5/6/2022, 1:18:31 PM",fk0tx48d0yco5xjacw9q,0.0-32.0,pilot_prolific_afc_0_25,39,man,089,0.0,white,25R,C,1718,"['../stimuli/version1_gray_lm/id089_25R_C.png', '../stimuli/version1_gray_lm/id149_25L_D.png', '../stimuli/version1_gray_lm/id149_00C_U.png']",90944.0,0.0,37.0,15.0,encoding,man,149,"[1, 2]",white,"['25L', '00C']","['D', 'U']",,"{'muct_id': '255', 'lighting': 't', 'race_guess': 'w', 'gender_guess': 'm', 'quality': '3', 'quality_eyes': '3', 'quality_mouth': '3', 'quality_ears': '3', 'quality_hair': '3', 'quality_neck': '3', 'facial_hair': '2.0', 'notes': None, 'race_common': 'white', 'gender_common': 'man'}","{'muct_id': '416', 'lighting': 'w', 'race_guess': 'w', 'gender_guess': 'm', 'quality': '3', 'quality_eyes': '3', 'quality_mouth': '3', 'quality_ears': '3', 'quality_hair': '3', 'quality_neck': '3', 'facial_hair': '2.0', 'notes': None, 'race_common': 'white', 'gender_common': 'man'}",,,,,,,,,,,,,,,,,,,,,,,,,,,,,,,,,,,,,,,,,,,,,,627557f2a4d61882cd69ee60,6270a134c9156018b145dc21,594ad91fa6fb8200018f720c,,,,,,,,,,,,,,,,,,,,,0.832765519618988,"[0.8361551761627197, 0.8242371678352356]",,,,
20891,627558691a371c538416ce57,Chrome,2.0,main_task,1.0,2.0,chris,"5/6/2022, 1:18:33 PM",fk0tx48d0yco5xjacw9q,0.0-34.0,pilot_prolific_afc_0_25,39,man,122,1.0,black,00C,D,2367,"['../stimuli/version1_gray_lm/id105_25R_U.png', '../stimuli/version1_gray_lm/id122_00C_D.png', '../stimuli/version1_gray_lm/id105_25L_C.png']",93626.0,0.0,39.0,16.0,encoding,man,105,"[0, 2]",black,"['25R', '25L']","['U', 'C']",,"{'muct_id': '425', 'lighting': 'x', 'race_guess': 'b', 'gender_guess': 'm', 'quality': '3', 'quality_eyes': '3', 'quality_mouth': '3', 'quality_ears': '3', 'quality_hair': '3', 'quality_neck': '3', 'facial_hair': '2.0', 'notes': None, 'race_common': 'black', 'gender_common': 'man'}","{'muct_id': '290', 'lighting': 't', 'race_guess': 'b', 'gender_guess': 'm', 'quality': '3', 'quality_eyes': '3', 'quality_mouth': '3', 'quality_ears': '3', 'quality_hair': '3', 'quality_neck': '3', 'facial_hair': '2.0', 'notes': None, 'race_common': 'black', 'gender_common': 'man'}",,,,,,,,,,,,,,,,,,,,,,,,,,,,,,,,,,,,,,,,,,,,,,627557f2a4d61882cd69ee60,6270a134c9156018b145dc21,594ad91fa6fb8200018f720c,,,,,,,,,,,,,,,,,,,,,0.8157645463943481,"[0.8528723120689392, 0.8545332551002502]",,,,
20892,6275586a1a371c538416ce58,Chrome,3.0,main_task,1.0,3.0,chris,"5/6/2022, 1:18:35 PM",fk0tx48d0yco5xjacw9q,0.0-36.0,pilot_prolific_afc_0_25,40,man,145,2.0,white,00C,U,1210,"['../stimuli/version1_gray_lm/id032_25R_C.png', '../stimuli/version1_gray_lm/id032_25L_D.png', '../stimuli/version1_gray_lm/id145_00C_U.png']",95133.0,0.0,41.0,17.0,encoding,man,032,"[0, 1]",white,"['25R', '25L']","['C', 'D']",,"{'muct_id': '230', 'lighting': 'u', 'race_guess': 'w', 'gender_guess': 'm', 'quality': '3', 'quality_eyes': '3', 'quality_mouth': '3', 'quality_ears': '3', 'quality_hair': '3', 'quality_neck': '3', 'facial_hair': '0.0', 'notes': 'hair', 'race_common': 'white', 'gender_common': 'man'}","{'muct_id': '43', 'lighting': 'q', 'race_guess': 'w', 'gender_guess': 'm', 'quality': '3', 'quality_eyes': '3', 'quality_mouth': '3', 'quality_ears': '3', 'quality_hair': '3', 'quality_neck': '3', 'facial_hair': '0.0', 'notes': None, 'race_common': 'white', 'gender_common': 'man'}",,,,,,,,,,,,,,,,,,,,,,,,,,,,,,,,,,,,,,,,,,,,,,627557f2a4d61882cd69ee60,6270a134c9156018b145dc21,594ad91fa6fb8200018f720c,,,,,,,,,,,,,,,,,,,,,0.820552408695221,"[0.8074866533279419, 0.8852961659431458]",,,,
20893,6275586d1a371c538416ce59,Chrome,2.0,main_task,1.0,2.0,chris,"5/6/2022, 1:18:37 PM",fk0tx48d0yco5xjacw9q,0.0-38.0,pilot_prolific_afc_0_25,39,man,058,1.0,black,25R,U,1851,"['../stimuli/version1_gray_lm/id021_00C_D.png', '../stimuli/version1_gray_lm/id058_25R_U.png', '../stimuli/version1_gray_lm/id021_25L_C.png']",97296.0,0.0,43.0,18.0,encoding,man,021,"[0, 2]",black,"['00C', '25L']","['D', 'C']",,"{'muct_id': '84', 'lighting': 'q', 'race_guess': 'b', 'gender_guess': 'm', 'quality': '2', 'quality_eyes': '2', 'quality_mouth': '3', 'quality_ears': '3', 'quality_hair': '3', 'quality_neck': '3', 'facial_hair': '3.0', 'notes': 'beard', 'race_common': 'black', 'gender_common': 'man'}","{'muct_id': '25', 'lighting': 'r', 'race_guess': 'b', 'gender_guess': 'm', 'quality': '3', 'quality_eyes': '3', 'quality_mouth': '3', 'quality_ears': '3', 'quality_hair': '3', 'quality_neck': '3', 'facial_hair': '2.0', 'notes': None, 'race_common': 'black', 'gender_common': 'man'}",,,,,,,,,,,,,,,,,,,,,,,,,,,,,,,,,,,,,,,,,,,,,,627557f2a4d61882cd69ee60,6270a134c9156018b145dc21,594ad91fa6fb8200018f720c,,,,,,,,,,,,,,,,,,,,,0.7833719253540039,"[0.8625242114067078, 0.8428661227226257]",,,,
20894,6275586e1a371c538416ce5a,Chrome,3.0,main_task,1.0,3.0,chris,"5/6/2022, 1:18:39 PM",fk0tx48d0yco5xjacw9q,0.0-40.0,pilot_prolific_afc_0_25,40,man,131,2.0,white,25R,D,1356,"['../stimuli/version1_gray_lm/id050_25L_U.png', '../stimuli/version1_gray_lm/id050_00C_C.png', '../stimuli/version1_gray_lm/id131_25R_D.png']",98921.0,0.0,45.0,19.0,encoding,man,050,"[0, 1]",white,"['25L', '00C']","['U', 'C']",,"{'muct_id': '442', 'lighting': 'x', 'race_guess': 'w', 'gender_guess': 'm', 'quality': '3', 'quality_eyes': '3', 'quality_mouth': '3', 'quality_ears': '3', 'quality_hair': '3', 'quality_neck': '3', 'facial_hair': '2.0', 'notes': None, 'race_common': 'white', 'gender_common': 'man'}","{'muct_id': '70', 'lighting': 'r', 'race_guess': 'w', 'gender_guess': 'm', 'quality': '3', 'quality_eyes': '3', 'quality_mouth': '3', 'quality_ears': '3', 'quality_hair': '3', 'quality_neck': '3', 'facial_hair': '4.0', 'notes': 'beard', 'race_common': 'white', 'gender_common': 'man'}",,,,,,,,,,,,,,,,,,,,,,,,,,,,,,,,,,,,,,,,,,,,,,627557f2a4d61882cd69ee60,6270a134c9156018b145dc21,594ad91fa6fb8200018f720c,,,,,,,,,,,,,,,,,,,,,0.8197820782661438,"[0.7863359451293945, 0.815523624420166]",,,,
20895,627558701a371c538416ce5b,Chrome,3.0,main_task,1.0,3.0,chris,"5/6/2022, 1:18:40 PM",fk0tx48d0yco5xjacw9q,0.0-42.0,pilot_prolific_afc_0_25,40,woman,069,2.0,black,00C,U,1209,"['../stimuli/version1_gray_lm/id027_25R_D.png', '../stimuli/version1_gray_lm/id027_25L_C.png', '../stimuli/version1_gray_lm/id069_00C_U.png']",100378.0,0.0,47.0,20.0,encoding,woman,027,"[0, 1]",black,"['25R', '25L']","['D', 'C']",,"{'muct_id': '218', 'lighting': 't', 'race_guess': 'b', 'gender_guess': 'w', 'quality': '3', 'quality_eyes': '3', 'quality_mouth': '3', 'quality_ears': '3', 'quality_hair': '3', 'quality_neck': '3', 'facial_hair': '0.0', 'notes': None, 'race_common': 'black', 'gender_common': 'woman'}","{'muct_id': '37', 'lighting': 'q', 'race_guess': 'b', 'gender_guess': 'w', 'quality': '3', 'quality_eyes': '3', 'quality_mouth': '3', 'quality_ears': '3', 'quality_hair': '3', 'quality_neck': '3', 'facial_hair': '0.0', 'notes': 'earrings', 'race_common': 'black', 'gender_common': 'woman'}",,,,,,,,,,,,,,,,,,,,,,,,,,,,,,,,,,,,,,,,,,,,,,627557f2a4d61882cd69ee60,6270a134c9156018b145dc21,594ad91fa6fb8200018f720c,,,,,,,,,,,,,,,,,,,,,0.8093801140785217,"[0.8136028051376343, 0.7949371337890625]",,,,
20896,627558711a371c538416ce5c,Chrome,2.0,main_task,1.0,2.0,chris,"5/6/2022, 1:18:42 PM",fk0tx48d0yco5xjacw9q,0.0-44.0,pilot_prolific_afc_0_25,39,woman,109,1.0,white,25R,C,1339,"['../stimuli/version1_gray_lm/id017_25L_U.png', '../stimuli/version1_gray_lm/id109_25R_C.png', '../stimuli/version1_gray_lm/id017_00C_D.png']",101959.0,0.0,49.0,21.0,encoding,woman,017,"[0, 2]",white,"['25L', '00C']","['U', 'D']",,"{'muct_id': '401', 'lighting': 'w', 'race_guess': 'w', 'gender_guess': 'w', 'quality': '3', 'quality_eyes': '3', 'quality_mouth': '3', 'quality_ears': '3', 'quality_hair': '3', 'quality_neck': '3', 'facial_hair': '0.0', 'notes': 'mouth', 'race_common': 'white', 'gender_common': 'woman'}","{'muct_id': '19', 'lighting': 'r', 'race_guess': 'w', 'gender_guess': 'w', 'quality': '3', 'quality_eyes': '3', 'quality_mouth': '3', 'quality_ears': '3', 'quality_hair': '3', 'quality_neck': '3', 'facial_hair': '0.0', 'notes': None, 'race_common': 'white', 'gender_common': 'woman'}",,,,,,,,,,,,,,,,,,,,,,,,,,,,,,,,,,,,,,,,,,,,,,627557f2a4d61882cd69ee60,6270a134c9156018b145dc21,594ad91fa6fb8200018f720c,,,,,,,,,,,,,,,,,,,,,0.8417885303497314,"[0.76385098695755, 0.8543451428413391]",,,,
20897,627558741a371c538416ce5d,Chrome,2.0,main_task,1.0,2.0,chris,"5/6/2022, 1:18:45 PM",fk0tx48d0yco5xjacw9q,0.0-46.0,pilot_prolific_afc_0_25,39,man,028,1.0,black,25L,U,2566,"['../stimuli/version1_gray_lm/id128_00C_D.png', '../stimuli/version1_gray_lm/id028_25L_U.png', '../stimuli/version1_gray_lm/id128_25R_C.png']",104817.0,0.0,51.0,22.0,encoding,man,128,"[0, 2]",black,"['00C', '25R']","['D', 'C']",,"{'muct_id': '38', 'lighting': 'q', 'race_guess': 'b', 'gender_guess': 'm', 'quality': '3', 'quality_eyes': '3', 'quality_mouth': '3', 'quality_ears': '3', 'quality_hair': '3', 'quality_neck': '3', 'facial_hair': '2.0', 'notes': None, 'race_common': 'black', 'gender_common': 'man'}","{'muct_id': '436', 'lighting': 'w', 'race_guess': 'b', 'gender_guess': 'm', 'quality': '3', 'quality_eyes': '3', 'quality_mouth': '3', 'quality_ears': '3', 'quality_hair': '3', 'quality_neck': '3', 'facial_hair': '3.0', 'notes': 'beard', 'race_common': 'black', 'gender_common': 'man'}",,,,,,,,,,,,,,,,,,,,,,,,,,,,,,,,,,,,,,,,,,,,,,627557f2a4d61882cd69ee60,6270a134c9156018b145dc21,594ad91fa6fb8200018f720c,,,,,,,,,,,,,,,,,,,,,0.8379344344139099,"[0.8515274524688721, 0.7975906729698181]",,,,
20898,627558771a371c538416ce5e,Chrome,3.0,main_task,0.0,2.0,chris,"5/6/2022, 1:18:48 PM",fk0tx48d0yco5xjacw9q,0.0-48.0,pilot_prolific_afc_0_25,40,woman,018,1.0,white,25R,C,2857,"['../stimuli/version1_gray_lm/id031_00C_D.png', '../stimuli/version1_gray_lm/id018_25R_C.png', '../stimuli/version1_gray_lm/id031_25L_U.png']",108069.0,0.0,53.0,23.0,encoding,woman,031,"[0, 2]",white,"['00C', '25L']","['D', 'U']",,"{'muct_id': '21', 'lighting': 'q', 'race_guess': 'w', 'gender_guess': 'w', 'quality': '3', 'quality_eyes': '3', 'quality_mouth': '3', 'quality_ears': '3', 'quality_hair': '3', 'quality_neck': '3', 'facial_hair': '0.0', 'notes': None, 'race_common': 'white', 'gender_common': 'woman'}","{'muct_id': '42', 'lighting': 'q', 'race_guess': 'u', 'gender_guess': 'w', 'quality': '2', 'quality_eyes': '3', 'quality_mouth': '3', 'quality_ears': '2', 'quality_hair': '3', 'quality_neck': '3', 'facial_hair': '0.0', 'notes': 'mouth', 'race_common': 'white', 'gender_common': 'woman'}",,,,,,,,,,,,,,,,,,,,,,,,,,,,,,,,,,,,,,,,,,,,,,627557f2a4d61882cd69ee60,6270a134c9156018b145dc21,594ad91fa6fb8200018f720c,,,,,,,,,,,,,,,,,,,,,0.7986854314804077,"[0.8510716557502747, 0.7977709174156189]",,,,
20899,6275587a1a371c538416ce5f,Chrome,3.0,main_task,0.0,2.0,chris,"5/6/2022, 1:18:50 PM",fk0tx48d0yco5xjacw9q,0.0-50.0,pilot_prolific_afc_0_25,40,man,098,1.0,black,25R,C,1899,"['../stimuli/version1_gray_lm/id004_25L_D.png', '../stimuli/version1_gray_lm/id098_25R_C.png', '../stimuli/version1_gray_lm/id004_00C_U.png']",110270.0,0.0,55.0,24.0,encoding,man,004,"[0, 2]",black,"['25L', '00C']","['D', 'U']",,"{'muct_id': '274', 'lighting': 't', 'race_guess': 'b', 'gender_guess': 'm', 'quality': '3', 'quality_eyes': '3', 'quality_mouth': '3', 'quality_ears': '3', 'quality_hair': '3', 'quality_neck': '3', 'facial_hair': '4.0', 'notes': None, 'race_common': 'black', 'gender_common': 'man'}","{'muct_id': '4', 'lighting': 'q', 'race_guess': 'b', 'gender_guess': 'm', 'quality': '3', 'quality_eyes': '3', 'quality_mouth': '3', 'quality_ears': '3', 'quality_hair': '3', 'quality_neck': '3', 'facial_hair': '2.0', 'notes': None, 'race_common': 'black', 'gender_common': 'man'}",,,,,,,,,,,,,,,,,,,,,,,,,,,,,,,,,,,,,,,,,,,,,,627557f2a4d61882cd69ee60,6270a134c9156018b145dc21,594ad91fa6fb8200018f720c,,,,,,,,,,,,,,,,,,,,,0.8504486680030823,"[0.8510183691978455, 0.8110041618347168]",,,,
20900,6275587a1a371c538416ce60,Chrome,2.0,main_task,1.0,2.0,chris,"5/6/2022, 1:18:59 PM",xp5c2yybmovlo1rnvk6q,0.0-2.0-0.0,pilot_prolific_afc_0_25,39,man,129,1.0,latinx,25L,D,2893,"['../stimuli/version1_gray_lm/id025_25R_C.png', '../stimuli/version1_gray_lm/id129_25L_D.png', '../stimuli/version1_gray_lm/id025_00C_U.png']",133085.0,0.0,2.0,1.0,encoding_practice,woman,025,"[0, 2]",latinx,"['25R', '00C']","['C', 'U']",,,,,,,,,,,,,,,,,,,,,,,,,,,,,,,,,,,,,,,,,,,,,,,,,627557de7e4fb4dabf0f6b7d,6270a134c9156018b145dc21,610d170f7bb4e720cb85b6b2,,,,,,,,,,,,,,,,,,,,,0.863303005695343,"[0.7971988916397095, 0.7825284600257874]",,,,
20901,6275587d1a371c538416ce61,Chrome,2.0,main_task,0.0,1.0,chris,"5/6/2022, 1:18:53 PM",fk0tx48d0yco5xjacw9q,0.0-52.0,pilot_prolific_afc_0_25,39,man,080,0.0,white,25R,D,1844,"['../stimuli/version1_gray_lm/id080_25R_D.png', '../stimuli/version1_gray_lm/id116_25L_U.png', '../stimuli/version1_gray_lm/id116_00C_C.png']",113523.0,0.0,57.0,25.0,encoding,man,116,"[1, 2]",white,"['25L', '00C']","['U', 'C']",,"{'muct_id': '240', 'lighting': 'u', 'race_guess': 'w', 'gender_guess': 'm', 'quality': '3', 'quality_eyes': '3', 'quality_mouth': '3', 'quality_ears': '3', 'quality_hair': '3', 'quality_neck': '3', 'facial_hair': '0.0', 'notes': 'mouth', 'race_common': 'white', 'gender_common': 'man'}","{'muct_id': '414', 'lighting': 'w', 'race_guess': 'w', 'gender_guess': 'm', 'quality': '3', 'quality_eyes': '3', 'quality_mouth': '3', 'quality_ears': '3', 'quality_hair': '3', 'quality_neck': '3', 'facial_hair': '0.0', 'notes': None, 'race_common': 'white', 'gender_common': 'man'}",,,,,,,,,,,,,,,,,,,,,,,,,,,,,,,,,,,,,,,,,,,,,,627557f2a4d61882cd69ee60,6270a134c9156018b145dc21,594ad91fa6fb8200018f720c,,,,,,,,,,,,,,,,,,,,,0.8339147567749023,"[0.8065091371536255, 0.8290964365005493]",,,,
20902,6275587e1a371c538416ce62,Chrome,2.0,main_task,1.0,2.0,chris,"5/6/2022, 1:19:03 PM",xp5c2yybmovlo1rnvk6q,0.0-2.1-0.1,pilot_prolific_afc_0_25,39,woman,025,1.0,latinx,25L,U,2290,"['../stimuli/version1_gray_lm/id129_00C_D.png', '../stimuli/version1_gray_lm/id025_25L_U.png', '../stimuli/version1_gray_lm/id129_25R_C.png']",137253.0,0.0,4.0,2.0,encoding_practice,man,129,"[0, 2]",latinx,"['00C', '25R']","['D', 'C']",,,,,,,,,,,,,,,,,,,,,,,,,,,,,,,,,,,,,,,,,,,,,,,,,627557de7e4fb4dabf0f6b7d,6270a134c9156018b145dc21,610d170f7bb4e720cb85b6b2,,,,,,,,,,,,,,,,,,,,,0.7986361980438232,"[0.9172089695930481, 0.8260073661804199]",,,,
20903,6275587f1a371c538416ce63,Chrome,2.0,main_task,1.0,2.0,chris,"5/6/2022, 1:18:55 PM",fk0tx48d0yco5xjacw9q,0.0-54.0,pilot_prolific_afc_0_25,39,man,057,1.0,black,00C,D,1782,"['../stimuli/version1_gray_lm/id118_25R_C.png', '../stimuli/version1_gray_lm/id057_00C_D.png', '../stimuli/version1_gray_lm/id118_25L_U.png']",115622.0,0.0,59.0,26.0,encoding,man,118,"[0, 2]",black,"['25R', '25L']","['C', 'U']",,"{'muct_id': '83', 'lighting': 'r', 'race_guess': 'b', 'gender_guess': 'm', 'quality': '3', 'quality_eyes': '3', 'quality_mouth': '3', 'quality_ears': '3', 'quality_hair': '3', 'quality_neck': '3', 'facial_hair': '3.0', 'notes': None, 'race_common': 'black', 'gender_common': 'man'}","{'muct_id': '419', 'lighting': 'x', 'race_guess': 'b', 'gender_guess': 'm', 'quality': '3', 'quality_eyes': '3', 'quality_mouth': '3', 'quality_ears': '3', 'quality_hair': '3', 'quality_neck': '3', 'facial_hair': '1.0', 'notes': None, 'race_common': 'black', 'gender_common': 'man'}",,,,,,,,,,,,,,,,,,,,,,,,,,,,,,,,,,,,,,,,,,,,,,627557f2a4d61882cd69ee60,6270a134c9156018b145dc21,594ad91fa6fb8200018f720c,,,,,,,,,,,,,,,,,,,,,0.8576472401618958,"[0.7828714847564697, 0.8068164587020874]",,,,
20904,627558811a371c538416ce64,Chrome,3.0,main_task,1.0,3.0,chris,"5/6/2022, 1:18:58 PM",fk0tx48d0yco5xjacw9q,0.0-56.0,pilot_prolific_afc_0_25,40,woman,029,2.0,white,00C,D,1987,"['../stimuli/version1_gray_lm/id076_25L_C.png', '../stimuli/version1_gray_lm/id076_25R_U.png', '../stimuli/version1_gray_lm/id029_00C_D.png']",117887.0,0.0,61.0,27.0,encoding,woman,076,"[0, 1]",white,"['25L', '25R']","['C', 'U']",,"{'muct_id': '39', 'lighting': 'r', 'race_guess': 'w', 'gender_guess': 'w', 'quality': '3', 'quality_eyes': '3', 'quality_mouth': '3', 'quality_ears': '3', 'quality_hair': '3', 'quality_neck': '3', 'facial_hair': '0.0', 'notes': 'earrings hair', 'race_common': 'white', 'gender_common': 'woman'}","{'muct_id': '233', 'lighting': 'u', 'race_guess': 'w', 'gender_guess': 'w', 'quality': '3', 'quality_eyes': '3', 'quality_mouth': '3', 'quality_ears': '3', 'quality_hair': '3', 'quality_neck': '3', 'facial_hair': '0.0', 'notes': 'earrings', 'race_common': 'white', 'gender_common': 'woman'}",,,,,,,,,,,,,,,,,,,,,,,,,,,,,,,,,,,,,,,,,,,,,,627557f2a4d61882cd69ee60,6270a134c9156018b145dc21,594ad91fa6fb8200018f720c,,,,,,,,,,,,,,,,,,,,,0.8769316673278809,"[0.8213046789169312, 0.8417189121246338]",,,,
20905,627558821a371c538416ce65,Chrome,2.0,main_task,1.0,2.0,chris,"5/6/2022, 1:19:07 PM",xp5c2yybmovlo1rnvk6q,0.0-2.2-0.2,pilot_prolific_afc_0_25,39,man,129,1.0,latinx,00C,C,1836,"['../stimuli/version1_gray_lm/id130_25R_U.png', '../stimuli/version1_gray_lm/id129_00C_C.png', '../stimuli/version1_gray_lm/id130_25L_D.png']",141180.0,0.0,6.0,3.0,encoding_practice,woman,130,"[0, 2]",latinx,"['25R', '25L']","['U', 'D']",1.0,,,,,,,,,,,,,,,,,,,,,,,,,,,,,,,,,,,,,,,,,,,,,,,,627557de7e4fb4dabf0f6b7d,6270a134c9156018b145dc21,610d170f7bb4e720cb85b6b2,,,,,,,,,,,,,,,,,,,,,0.8799553513526917,"[0.8449562191963196, 0.8653770685195923]",,,,
20906,627558831a371c538416ce66,Chrome,3.0,main_task,1.0,3.0,chris,"5/6/2022, 1:19:00 PM",fk0tx48d0yco5xjacw9q,0.0-58.0,pilot_prolific_afc_0_25,40,woman,019,2.0,black,25R,C,1663,"['../stimuli/version1_gray_lm/id035_00C_U.png', '../stimuli/version1_gray_lm/id035_25L_D.png', '../stimuli/version1_gray_lm/id019_25R_C.png']",119858.0,0.0,63.0,28.0,encoding,woman,035,"[0, 1]",black,"['00C', '25L']","['U', 'D']",,"{'muct_id': '23', 'lighting': 'q', 'race_guess': 'b', 'gender_guess': 'u', 'quality': '3', 'quality_eyes': '3', 'quality_mouth': '3', 'quality_ears': '3', 'quality_hair': '3', 'quality_neck': '3', 'facial_hair': '0.0', 'notes': None, 'race_common': 'black', 'gender_common': 'woman'}","{'muct_id': '46', 'lighting': 'q', 'race_guess': 'b', 'gender_guess': 'w', 'quality': '3', 'quality_eyes': '3', 'quality_mouth': '3', 'quality_ears': '3', 'quality_hair': '3', 'quality_neck': '3', 'facial_hair': '0.0', 'notes': 'earrings', 'race_common': 'black', 'gender_common': 'woman'}",,,,,,,,,,,,,,,,,,,,,,,,,,,,,,,,,,,,,,,,,,,,,,627557f2a4d61882cd69ee60,6270a134c9156018b145dc21,594ad91fa6fb8200018f720c,,,,,,,,,,,,,,,,,,,,,0.7892867922782898,"[0.8166956901550293, 0.84086674451828]",,,,
20907,627558851a371c538416ce67,Chrome,2.0,main_task,1.0,2.0,chris,"5/6/2022, 1:19:01 PM",fk0tx48d0yco5xjacw9q,0.0-60.0,pilot_prolific_afc_0_25,39,woman,144,1.0,black,25L,U,1505,"['../stimuli/version1_gray_lm/id016_25R_C.png', '../stimuli/version1_gray_lm/id144_25L_U.png', '../stimuli/version1_gray_lm/id016_00C_D.png']",121699.0,0.0,65.0,29.0,encoding,woman,016,"[0, 2]",black,"['25R', '00C']","['C', 'D']",,"{'muct_id': '214', 'lighting': 'u', 'race_guess': 'b', 'gender_guess': 'w', 'quality': '2', 'quality_eyes': '2', 'quality_mouth': '3', 'quality_ears': '3', 'quality_hair': '3', 'quality_neck': '3', 'facial_hair': '0.0', 'notes': None, 'race_common': 'black', 'gender_common': 'woman'}","{'muct_id': '18', 'lighting': 'q', 'race_guess': 'b', 'gender_guess': 'w', 'quality': '3', 'quality_eyes': '3', 'quality_mouth': '3', 'quality_ears': '3', 'quality_hair': '3', 'quality_neck': '3', 'facial_hair': '0.0', 'notes': 'earrings', 'race_common': 'black', 'gender_common': 'woman'}",,,,,,,,,,,,,,,,,,,,,,,,,,,,,,,,,,,,,,,,,,,,,,627557f2a4d61882cd69ee60,6270a134c9156018b145dc21,594ad91fa6fb8200018f720c,,,,,,,,,,,,,,,,,,,,,0.7994329333305359,"[0.8007856011390686, 0.8543796539306641]",,,,
20908,627558871a371c538416ce68,Chrome,1.0,main_task,1.0,1.0,chris,"5/6/2022, 1:19:04 PM",fk0tx48d0yco5xjacw9q,0.0-62.0,pilot_prolific_afc_0_25,37,man,052,0.0,white,25L,C,1802,"['../stimuli/version1_gray_lm/id052_25L_C.png', '../stimuli/version1_gray_lm/id104_00C_D.png', '../stimuli/version1_gray_lm/id104_25R_U.png']",123785.0,0.0,67.0,30.0,encoding,man,104,"[1, 2]",white,"['00C', '25R']","['D', 'U']",,"{'muct_id': '75', 'lighting': 'q', 'race_guess': 'w', 'gender_guess': 'm', 'quality': '3', 'quality_eyes': '3', 'quality_mouth': '3', 'quality_ears': '3', 'quality_hair': '3', 'quality_neck': '3', 'facial_hair': '4.0', 'notes': 'beard', 'race_common': 'white', 'gender_common': 'man'}","{'muct_id': '287', 'lighting': 't', 'race_guess': 'w', 'gender_guess': 'm', 'quality': '3', 'quality_eyes': '3', 'quality_mouth': '3', 'quality_ears': '3', 'quality_hair': '3', 'quality_neck': '3', 'facial_hair': '2.0', 'notes': None, 'race_common': 'white', 'gender_common': 'man'}",,,,,,,,,,,,,,,,,,,,,,,,,,,,,,,,,,,,,,,,,,,,,,627557f2a4d61882cd69ee60,6270a134c9156018b145dc21,594ad91fa6fb8200018f720c,,,,,,,,,,,,,,,,,,,,,0.8192172050476074,"[0.8582553267478943, 0.7843561768531799]",,,,
20909,6275588b1a371c538416ce69,Chrome,3.0,main_task,1.0,3.0,chris,"5/6/2022, 1:19:07 PM",fk0tx48d0yco5xjacw9q,0.0-64.0,pilot_prolific_afc_0_25,40,woman,111,2.0,black,25L,D,3587,"['../stimuli/version1_gray_lm/id136_25R_U.png', '../stimuli/version1_gray_lm/id136_00C_C.png', '../stimuli/version1_gray_lm/id111_25L_D.png']",127737.0,0.0,69.0,31.0,encoding,woman,136,"[0, 1]",black,"['25R', '00C']","['U', 'C']",,"{'muct_id': '405', 'lighting': 'w', 'race_guess': 'b', 'gender_guess': 'w', 'quality': '3', 'quality_eyes': '3', 'quality_mouth': '3', 'quality_ears': '3', 'quality_hair': '3', 'quality_neck': '3', 'facial_hair': '0.0', 'notes': 'hair earrings', 'race_common': 'black', 'gender_common': 'woman'}","{'muct_id': '616', 'lighting': 'y', 'race_guess': 'b', 'gender_guess': 'w', 'quality': '3', 'quality_eyes': '3', 'quality_mouth': '3', 'quality_ears': '3', 'quality_hair': '3', 'quality_neck': '3', 'facial_hair': '0.0', 'notes': 'earrings', 'race_common': 'black', 'gender_common': 'woman'}",,,,,,,,,,,,,,,,,,,,,,,,,,,,,,,,,,,,,,,,,,,,,,627557f2a4d61882cd69ee60,6270a134c9156018b145dc21,594ad91fa6fb8200018f720c,,,,,,,,,,,,,,,,,,,,,0.8722007870674133,"[0.8327818512916565, 0.8723787069320679]",,,,
20910,6275588d1a371c538416ce6a,Chrome,1.0,main_task,1.0,1.0,chris,"5/6/2022, 1:19:10 PM",fk0tx48d0yco5xjacw9q,0.0-66.0,pilot_prolific_afc_0_25,37,man,093,0.0,white,25L,D,1837,"['../stimuli/version1_gray_lm/id093_25L_D.png', '../stimuli/version1_gray_lm/id061_25R_C.png', '../stimuli/version1_gray_lm/id061_00C_U.png']",129885.0,0.0,71.0,32.0,encoding,man,061,"[1, 2]",white,"['25R', '00C']","['C', 'U']",,"{'muct_id': '263', 'lighting': 'u', 'race_guess': 'w', 'gender_guess': 'm', 'quality': '3', 'quality_eyes': '3', 'quality_mouth': '3', 'quality_ears': '3', 'quality_hair': '3', 'quality_neck': '3', 'facial_hair': '2.0', 'notes': None, 'race_common': 'white', 'gender_common': 'man'}","{'muct_id': '89', 'lighting': 'r', 'race_guess': 'w', 'gender_guess': 'm', 'quality': '3', 'quality_eyes': '3', 'quality_mouth': '3', 'quality_ears': '3', 'quality_hair': '3', 'quality_neck': '3', 'facial_hair': '2.0', 'notes': None, 'race_common': 'white', 'gender_common': 'man'}",,,,,,,,,,,,,,,,,,,,,,,,,,,,,,,,,,,,,,,,,,,,,,627557f2a4d61882cd69ee60,6270a134c9156018b145dc21,594ad91fa6fb8200018f720c,,,,,,,,,,,,,,,,,,,,,0.8080745935440063,"[0.8512407541275024, 0.8217813372612]",,,,
20911,6275588f1a371c538416ce6b,Chrome,3.0,main_task,1.0,3.0,chris,"5/6/2022, 1:19:20 PM",xp5c2yybmovlo1rnvk6q,0.0-4.0,pilot_prolific_afc_0_25,40,man,037,2.0,white,25L,U,2058,"['../stimuli/version1_gray_lm/id145_00C_C.png', '../stimuli/version1_gray_lm/id145_25R_D.png', '../stimuli/version1_gray_lm/id037_25L_U.png']",154499.0,0.0,9.0,1.0,encoding,man,145,"[0, 1]",white,"['00C', '25R']","['C', 'D']",,"{'muct_id': '48', 'lighting': 'w', 'race_guess': 'w', 'gender_guess': 'm', 'quality': '3', 'quality_eyes': '3', 'quality_mouth': '3', 'quality_ears': '3', 'quality_hair': '3', 'quality_neck': '3', 'facial_hair': '0.0', 'notes': None, 'race_common': 'white', 'gender_common': 'man'}","{'muct_id': '230', 'lighting': 'u', 'race_guess': 'w', 'gender_guess': 'm', 'quality': '3', 'quality_eyes': '3', 'quality_mouth': '3', 'quality_ears': '3', 'quality_hair': '3', 'quality_neck': '3', 'facial_hair': '0.0', 'notes': 'hair', 'race_common': 'white', 'gender_common': 'man'}",,,,,,,,,,,,,,,,,,,,,,,,,,,,,,,,,,,,,,,,,,,,,,627557de7e4fb4dabf0f6b7d,6270a134c9156018b145dc21,610d170f7bb4e720cb85b6b2,,,,,,,,,,,,,,,,,,,,,0.7745007872581482,"[0.8125337958335876, 0.8234713673591614]",,,,
20912,6275588f1a371c538416ce6c,Chrome,1.0,main_task,1.0,1.0,chris,"5/6/2022, 1:19:12 PM",fk0tx48d0yco5xjacw9q,0.0-68.0,pilot_prolific_afc_0_25,37,woman,020,0.0,black,00C,U,1934,"['../stimuli/version1_gray_lm/id020_00C_U.png', '../stimuli/version1_gray_lm/id059_25R_D.png', '../stimuli/version1_gray_lm/id059_25L_C.png']",132104.0,0.0,73.0,33.0,encoding,woman,059,"[1, 2]",black,"['25R', '25L']","['D', 'C']",,"{'muct_id': '24', 'lighting': 'q', 'race_guess': 'b', 'gender_guess': 'w', 'quality': '3', 'quality_eyes': '3', 'quality_mouth': '3', 'quality_ears': '3', 'quality_hair': '3', 'quality_neck': '3', 'facial_hair': '0.0', 'notes': None, 'race_common': 'black', 'gender_common': 'woman'}","{'muct_id': '86', 'lighting': 'q', 'race_guess': 'b', 'gender_guess': 'w', 'quality': '3', 'quality_eyes': '3', 'quality_mouth': '3', 'quality_ears': '3', 'quality_hair': '3', 'quality_neck': '3', 'facial_hair': '0.0', 'notes': 'earrings', 'race_common': 'black', 'gender_common': 'woman'}",,,,,,,,,,,,,,,,,,,,,,,,,,,,,,,,,,,,,,,,,,,,,,627557f2a4d61882cd69ee60,6270a134c9156018b145dc21,594ad91fa6fb8200018f720c,,,,,,,,,,,,,,,,,,,,,0.8024501204490662,"[0.8017624616622925, 0.8140988945960999]",,,,
20913,627558931a371c538416ce6d,Chrome,1.0,main_task,1.0,1.0,chris,"5/6/2022, 1:19:24 PM",xp5c2yybmovlo1rnvk6q,0.0-6.0,pilot_prolific_afc_0_25,37,man,122,0.0,black,00C,D,1884,"['../stimuli/version1_gray_lm/id122_00C_D.png', '../stimuli/version1_gray_lm/id033_25R_U.png', '../stimuli/version1_gray_lm/id033_25L_C.png']",158275.0,0.0,11.0,2.0,encoding,man,033,"[1, 2]",black,"['25R', '25L']","['U', 'C']",,"{'muct_id': '425', 'lighting': 'x', 'race_guess': 'b', 'gender_guess': 'm', 'quality': '3', 'quality_eyes': '3', 'quality_mouth': '3', 'quality_ears': '3', 'quality_hair': '3', 'quality_neck': '3', 'facial_hair': '2.0', 'notes': None, 'race_common': 'black', 'gender_common': 'man'}","{'muct_id': '44', 'lighting': 'q', 'race_guess': 'u', 'gender_guess': 'm', 'quality': '3', 'quality_eyes': '3', 'quality_mouth': '3', 'quality_ears': '3', 'quality_hair': '3', 'quality_neck': '3', 'facial_hair': '2.0', 'notes': None, 'race_common': 'black', 'gender_common': 'man'}",,,,,,,,,,,,,,,,,,,,,,,,,,,,,,,,,,,,,,,,,,,,,,627557de7e4fb4dabf0f6b7d,6270a134c9156018b145dc21,610d170f7bb4e720cb85b6b2,,,,,,,,,,,,,,,,,,,,,0.8157645463943481,"[0.8368958234786987, 0.870700478553772]",,,,
20914,627558931a371c538416ce6e,Chrome,2.0,main_task,1.0,2.0,chris,"5/6/2022, 1:19:16 PM",fk0tx48d0yco5xjacw9q,0.0-70.0,pilot_prolific_afc_0_25,39,woman,123,1.0,white,25R,D,2539,"['../stimuli/version1_gray_lm/id007_00C_C.png', '../stimuli/version1_gray_lm/id123_25R_D.png', '../stimuli/version1_gray_lm/id007_25L_U.png']",135930.0,0.0,75.0,34.0,encoding,woman,007,"[0, 2]",white,"['00C', '25L']","['C', 'U']",,"{'muct_id': '76', 'lighting': 'q', 'race_guess': 'w', 'gender_guess': 'w', 'quality': '2', 'quality_eyes': '2', 'quality_mouth': '3', 'quality_ears': '2', 'quality_hair': '2', 'quality_neck': '3', 'facial_hair': '0.0', 'notes': 'hair', 'race_common': 'white', 'gender_common': 'woman'}","{'muct_id': '7', 'lighting': 's', 'race_guess': 'u', 'gender_guess': 'w', 'quality': '3', 'quality_eyes': '3', 'quality_mouth': '3', 'quality_ears': '3', 'quality_hair': '3', 'quality_neck': '3', 'facial_hair': '0.0', 'notes': None, 'race_common': 'white', 'gender_common': 'woman'}",,,,,,,,,,,,,,,,,,,,,,,,,,,,,,,,,,,,,,,,,,,,,,627557f2a4d61882cd69ee60,6270a134c9156018b145dc21,594ad91fa6fb8200018f720c,,,,,,,,,,,,,,,,,,,,,0.8543378710746765,"[0.8256771564483643, 0.799282968044281]",,,,
20915,627558971a371c538416ce6f,Chrome,1.0,main_task,1.0,1.0,chris,"5/6/2022, 1:19:28 PM",xp5c2yybmovlo1rnvk6q,0.0-8.0,pilot_prolific_afc_0_25,37,woman,144,0.0,black,25R,C,2683,"['../stimuli/version1_gray_lm/id144_25R_C.png', '../stimuli/version1_gray_lm/id035_00C_D.png', '../stimuli/version1_gray_lm/id035_25L_U.png']",162475.0,0.0,13.0,3.0,encoding,woman,035,"[1, 2]",black,"['00C', '25L']","['D', 'U']",,"{'muct_id': '214', 'lighting': 'u', 'race_guess': 'b', 'gender_guess': 'w', 'quality': '2', 'quality_eyes': '2', 'quality_mouth': '3', 'quality_ears': '3', 'quality_hair': '3', 'quality_neck': '3', 'facial_hair': '0.0', 'notes': None, 'race_common': 'black', 'gender_common': 'woman'}","{'muct_id': '46', 'lighting': 'q', 'race_guess': 'b', 'gender_guess': 'w', 'quality': '3', 'quality_eyes': '3', 'quality_mouth': '3', 'quality_ears': '3', 'quality_hair': '3', 'quality_neck': '3', 'facial_hair': '0.0', 'notes': 'earrings', 'race_common': 'black', 'gender_common': 'woman'}",,,,,,,,,,,,,,,,,,,,,,,,,,,,,,,,,,,,,,,,,,,,,,627557de7e4fb4dabf0f6b7d,6270a134c9156018b145dc21,610d170f7bb4e720cb85b6b2,,,,,,,,,,,,,,,,,,,,,0.7979380488395691,"[0.8582037091255188, 0.7532981634140015]",,,,
20916,627558981a371c538416ce70,Chrome,1.0,main_task,1.0,1.0,chris,"5/6/2022, 1:19:21 PM",fk0tx48d0yco5xjacw9q,0.0-72.0,pilot_prolific_afc_0_25,37,woman,103,0.0,black,25R,U,4572,"['../stimuli/version1_gray_lm/id103_25R_U.png', '../stimuli/version1_gray_lm/id127_00C_C.png', '../stimuli/version1_gray_lm/id127_25L_D.png']",140794.0,0.0,77.0,35.0,encoding,woman,127,"[1, 2]",black,"['00C', '25L']","['C', 'D']",,"{'muct_id': '285', 'lighting': 'v', 'race_guess': 'b', 'gender_guess': 'w', 'quality': '3', 'quality_eyes': '3', 'quality_mouth': '3', 'quality_ears': '3', 'quality_hair': '3', 'quality_neck': '3', 'facial_hair': '0.0', 'notes': 'earrings', 'race_common': 'black', 'gender_common': 'woman'}","{'muct_id': '435', 'lighting': 'x', 'race_guess': 'b', 'gender_guess': 'w', 'quality': '3', 'quality_eyes': '3', 'quality_mouth': '3', 'quality_ears': '3', 'quality_hair': '3', 'quality_neck': '3', 'facial_hair': '0.0', 'notes': 'bandana', 'race_common': 'black', 'gender_common': 'woman'}",,,,,,,,,,,,,,,,,,,,,,,,,,,,,,,,,,,,,,,,,,,,,,627557f2a4d61882cd69ee60,6270a134c9156018b145dc21,594ad91fa6fb8200018f720c,,,,,,,,,,,,,,,,,,,,,0.8692502975463867,"[0.8018904328346252, 0.8330003023147583]",,,,
20917,6275589a1a371c538416ce71,Chrome,2.0,main_task,1.0,2.0,chris,"5/6/2022, 1:19:22 PM",fk0tx48d0yco5xjacw9q,0.0-74.0,pilot_prolific_afc_0_25,39,woman,150,1.0,white,25L,U,1594,"['../stimuli/version1_gray_lm/id114_25R_C.png', '../stimuli/version1_gray_lm/id150_25L_U.png', '../stimuli/version1_gray_lm/id114_00C_D.png']",142617.0,0.0,79.0,36.0,encoding,woman,114,"[0, 2]",white,"['25R', '00C']","['C', 'D']",,"{'muct_id': '422', 'lighting': 'w', 'race_guess': 'u', 'gender_guess': 'w', 'quality': '3', 'quality_eyes': '3', 'quality_mouth': '3', 'quality_ears': '3', 'quality_hair': '3', 'quality_neck': '3', 'facial_hair': '0.0', 'notes': 'mouth', 'race_common': 'white', 'gender_common': 'woman'}","{'muct_id': '410', 'lighting': 'w', 'race_guess': 'w', 'gender_guess': 'w', 'quality': '3', 'quality_eyes': '3', 'quality_mouth': '3', 'quality_ears': '3', 'quality_hair': '3', 'quality_neck': '3', 'facial_hair': '0.0', 'notes': 'makeup mouth', 'race_common': 'white', 'gender_common': 'woman'}",,,,,,,,,,,,,,,,,,,,,,,,,,,,,,,,,,,,,,,,,,,,,,627557f2a4d61882cd69ee60,6270a134c9156018b145dc21,594ad91fa6fb8200018f720c,,,,,,,,,,,,,,,,,,,,,0.8257170915603638,"[0.8039395809173584, 0.884064793586731]",,,,
20918,6275589a1a371c538416ce72,Chrome,1.0,main_task,1.0,1.0,chris,"5/6/2022, 1:19:31 PM",xp5c2yybmovlo1rnvk6q,0.0-10.0,pilot_prolific_afc_0_25,37,man,063,0.0,white,25L,D,1941,"['../stimuli/version1_gray_lm/id063_25L_D.png', '../stimuli/version1_gray_lm/id149_25R_U.png', '../stimuli/version1_gray_lm/id149_00C_C.png']",165526.0,0.0,15.0,4.0,encoding,man,149,"[1, 2]",white,"['25R', '00C']","['U', 'C']",,"{'muct_id': '203', 'lighting': 'u', 'race_guess': 'i', 'gender_guess': 'm', 'quality': '2', 'quality_eyes': '2', 'quality_mouth': '3', 'quality_ears': '3', 'quality_hair': '3', 'quality_neck': '3', 'facial_hair': '2.0', 'notes': 'mouth', 'race_common': 'white', 'gender_common': 'man'}","{'muct_id': '416', 'lighting': 'w', 'race_guess': 'w', 'gender_guess': 'm', 'quality': '3', 'quality_eyes': '3', 'quality_mouth': '3', 'quality_ears': '3', 'quality_hair': '3', 'quality_neck': '3', 'facial_hair': '2.0', 'notes': None, 'race_common': 'white', 'gender_common': 'man'}",,,,,,,,,,,,,,,,,,,,,,,,,,,,,,,,,,,,,,,,,,,,,,627557de7e4fb4dabf0f6b7d,6270a134c9156018b145dc21,610d170f7bb4e720cb85b6b2,,,,,,,,,,,,,,,,,,,,,0.8375473618507385,"[0.831551730632782, 0.7883397340774536]",,,,
20919,6275589c1a371c538416ce73,Chrome,2.0,main_task,1.0,2.0,chris,"5/6/2022, 1:19:25 PM",fk0tx48d0yco5xjacw9q,0.0-76.0,pilot_prolific_afc_0_25,39,woman,022,1.0,black,25R,U,2294,"['../stimuli/version1_gray_lm/id060_25L_D.png', '../stimuli/version1_gray_lm/id022_25R_U.png', '../stimuli/version1_gray_lm/id060_00C_C.png']",145178.0,0.0,81.0,37.0,encoding,woman,060,"[0, 2]",black,"['25L', '00C']","['D', 'C']",,"{'muct_id': '26', 'lighting': 'q', 'race_guess': 'b', 'gender_guess': 'w', 'quality': '3', 'quality_eyes': '3', 'quality_mouth': '3', 'quality_ears': '3', 'quality_hair': '3', 'quality_neck': '3', 'facial_hair': '0.0', 'notes': 'earrings', 'race_common': 'black', 'gender_common': 'woman'}","{'muct_id': '88', 'lighting': 'q', 'race_guess': 'b', 'gender_guess': 'w', 'quality': '3', 'quality_eyes': '3', 'quality_mouth': '3', 'quality_ears': '3', 'quality_hair': '3', 'quality_neck': '3', 'facial_hair': '0.0', 'notes': 'earrings', 'race_common': 'black', 'gender_common': 'woman'}",,,,,,,,,,,,,,,,,,,,,,,,,,,,,,,,,,,,,,,,,,,,,,627557f2a4d61882cd69ee60,6270a134c9156018b145dc21,594ad91fa6fb8200018f720c,,,,,,,,,,,,,,,,,,,,,0.7997410893440247,"[0.8522788286209106, 0.8590624332427979]",,,,
20920,6275589e1a371c538416ce74,Chrome,2.0,main_task,1.0,2.0,chris,"5/6/2022, 1:19:35 PM",xp5c2yybmovlo1rnvk6q,0.0-12.0,pilot_prolific_afc_0_25,39,woman,029,1.0,white,25L,U,1917,"['../stimuli/version1_gray_lm/id151_00C_C.png', '../stimuli/version1_gray_lm/id029_25L_U.png', '../stimuli/version1_gray_lm/id151_25R_D.png']",169135.0,0.0,17.0,5.0,encoding,woman,151,"[0, 2]",white,"['00C', '25R']","['C', 'D']",,"{'muct_id': '39', 'lighting': 'r', 'race_guess': 'w', 'gender_guess': 'w', 'quality': '3', 'quality_eyes': '3', 'quality_mouth': '3', 'quality_ears': '3', 'quality_hair': '3', 'quality_neck': '3', 'facial_hair': '0.0', 'notes': 'earrings hair', 'race_common': 'white', 'gender_common': 'woman'}","{'muct_id': '444', 'lighting': 'w', 'race_guess': 'w', 'gender_guess': 'w', 'quality': '3', 'quality_eyes': '3', 'quality_mouth': '3', 'quality_ears': '3', 'quality_hair': '3', 'quality_neck': '3', 'facial_hair': '0.0', 'notes': None, 'race_common': 'white', 'gender_common': 'woman'}",,,,,,,,,,,,,,,,,,,,,,,,,,,,,,,,,,,,,,,,,,,,,,627557de7e4fb4dabf0f6b7d,6270a134c9156018b145dc21,610d170f7bb4e720cb85b6b2,,,,,,,,,,,,,,,,,,,,,0.7869380712509155,"[0.8594769239425659, 0.828726053237915]",,,,
20921,6275589e1a371c538416ce75,Chrome,2.0,main_task,1.0,2.0,chris,"5/6/2022, 1:19:27 PM",fk0tx48d0yco5xjacw9q,0.0-78.0,pilot_prolific_afc_0_25,39,woman,102,1.0,white,25L,D,1787,"['../stimuli/version1_gray_lm/id155_25R_U.png', '../stimuli/version1_gray_lm/id102_25L_D.png', '../stimuli/version1_gray_lm/id155_00C_C.png']",147206.0,0.0,83.0,38.0,encoding,woman,155,"[0, 2]",white,"['25R', '00C']","['U', 'C']",,"{'muct_id': '283', 'lighting': 't', 'race_guess': 'i', 'gender_guess': 'w', 'quality': '3', 'quality_eyes': '3', 'quality_mouth': '3', 'quality_ears': '3', 'quality_hair': '3', 'quality_neck': '3', 'facial_hair': '0.0', 'notes': 'pottu', 'race_common': 'white', 'gender_common': 'woman'}","{'muct_id': '615', 'lighting': 'z', 'race_guess': 'w', 'gender_guess': 'w', 'quality': '3', 'quality_eyes': '3', 'quality_mouth': '3', 'quality_ears': '3', 'quality_hair': '3', 'quality_neck': '3', 'facial_hair': '0.0', 'notes': 'earrings', 'race_common': 'white', 'gender_common': 'woman'}",,,,,,,,,,,,,,,,,,,,,,,,,,,,,,,,,,,,,,,,,,,,,,627557f2a4d61882cd69ee60,6270a134c9156018b145dc21,594ad91fa6fb8200018f720c,,,,,,,,,,,,,,,,,,,,,0.8224856853485107,"[0.8348320722579956, 0.8539059162139893]",,,,
20922,627558a11a371c538416ce76,Chrome,2.0,main_task,1.0,2.0,chris,"5/6/2022, 1:19:30 PM",fk0tx48d0yco5xjacw9q,0.0-80.0,pilot_prolific_afc_0_25,39,man,094,1.0,white,25L,D,2560,"['../stimuli/version1_gray_lm/id099_00C_U.png', '../stimuli/version1_gray_lm/id094_25L_D.png', '../stimuli/version1_gray_lm/id099_25R_C.png']",150031.0,0.0,85.0,39.0,encoding,man,099,"[0, 2]",white,"['00C', '25R']","['U', 'C']",,"{'muct_id': '264', 'lighting': 't', 'race_guess': 'w', 'gender_guess': 'm', 'quality': '3', 'quality_eyes': '3', 'quality_mouth': '3', 'quality_ears': '3', 'quality_hair': '3', 'quality_neck': '3', 'facial_hair': '0.0', 'notes': None, 'race_common': 'white', 'gender_common': 'man'}","{'muct_id': '278', 'lighting': 't', 'race_guess': 'w', 'gender_guess': 'm', 'quality': '3', 'quality_eyes': '3', 'quality_mouth': '3', 'quality_ears': '3', 'quality_hair': '3', 'quality_neck': '3', 'facial_hair': '0.0', 'notes': None, 'race_common': 'white', 'gender_common': 'man'}",,,,,,,,,,,,,,,,,,,,,,,,,,,,,,,,,,,,,,,,,,,,,,627557f2a4d61882cd69ee60,6270a134c9156018b145dc21,594ad91fa6fb8200018f720c,,,,,,,,,,,,,,,,,,,,,0.8378531336784363,"[0.8130140900611877, 0.8158249855041504]",,,,
20923,627558a21a371c538416ce77,Chrome,1.0,main_task,0.0,2.0,chris,"5/6/2022, 1:19:39 PM",xp5c2yybmovlo1rnvk6q,0.0-14.0,pilot_prolific_afc_0_25,37,woman,060,1.0,black,25L,C,3210,"['../stimuli/version1_gray_lm/id016_25R_U.png', '../stimuli/version1_gray_lm/id060_25L_C.png', '../stimuli/version1_gray_lm/id016_00C_D.png']",173392.0,0.0,19.0,6.0,encoding,woman,016,"[0, 2]",black,"['25R', '00C']","['U', 'D']",,"{'muct_id': '88', 'lighting': 'q', 'race_guess': 'b', 'gender_guess': 'w', 'quality': '3', 'quality_eyes': '3', 'quality_mouth': '3', 'quality_ears': '3', 'quality_hair': '3', 'quality_neck': '3', 'facial_hair': '0.0', 'notes': 'earrings', 'race_common': 'black', 'gender_common': 'woman'}","{'muct_id': '18', 'lighting': 'q', 'race_guess': 'b', 'gender_guess': 'w', 'quality': '3', 'quality_eyes': '3', 'quality_mouth': '3', 'quality_ears': '3', 'quality_hair': '3', 'quality_neck': '3', 'facial_hair': '0.0', 'notes': 'earrings', 'race_common': 'black', 'gender_common': 'woman'}",,,,,,,,,,,,,,,,,,,,,,,,,,,,,,,,,,,,,,,,,,,,,,627557de7e4fb4dabf0f6b7d,6270a134c9156018b145dc21,610d170f7bb4e720cb85b6b2,,,,,,,,,,,,,,,,,,,,,0.8625316619873047,"[0.7357763648033142, 0.8543796539306641]",,,,
20924,627558a41a371c538416ce78,Chrome,2.0,main_task,1.0,2.0,chris,"5/6/2022, 1:19:33 PM",fk0tx48d0yco5xjacw9q,0.0-82.0,pilot_prolific_afc_0_25,39,man,001,1.0,black,25R,C,2811,"['../stimuli/version1_gray_lm/id107_25L_D.png', '../stimuli/version1_gray_lm/id001_25R_C.png', '../stimuli/version1_gray_lm/id107_00C_U.png']",153091.0,0.0,87.0,40.0,encoding,man,107,"[0, 2]",black,"['25L', '00C']","['D', 'U']",,"{'muct_id': '1', 'lighting': 'q', 'race_guess': 'b', 'gender_guess': 'm', 'quality': '3', 'quality_eyes': '3', 'quality_mouth': '3', 'quality_ears': '3', 'quality_hair': '3', 'quality_neck': '3', 'facial_hair': '1.0', 'notes': None, 'race_common': 'black', 'gender_common': 'man'}","{'muct_id': '297', 'lighting': 't', 'race_guess': 'b', 'gender_guess': 'm', 'quality': '3', 'quality_eyes': '3', 'quality_mouth': '3', 'quality_ears': '3', 'quality_hair': '3', 'quality_neck': '3', 'facial_hair': '4.0', 'notes': 'beard', 'race_common': 'black', 'gender_common': 'man'}",,,,,,,,,,,,,,,,,,,,,,,,,,,,,,,,,,,,,,,,,,,,,,627557f2a4d61882cd69ee60,6270a134c9156018b145dc21,594ad91fa6fb8200018f720c,,,,,,,,,,,,,,,,,,,,,0.8606387376785278,"[0.846289873123169, 0.7801476120948792]",,,,
20925,627558a61a371c538416ce79,Chrome,3.0,main_task,1.0,3.0,chris,"5/6/2022, 1:19:43 PM",xp5c2yybmovlo1rnvk6q,0.0-16.0,pilot_prolific_afc_0_25,40,man,139,2.0,black,25L,U,1909,"['../stimuli/version1_gray_lm/id040_00C_C.png', '../stimuli/version1_gray_lm/id040_25R_D.png', '../stimuli/version1_gray_lm/id139_25L_U.png']",176966.0,0.0,21.0,7.0,encoding,man,040,"[0, 1]",black,"['00C', '25R']","['C', 'D']",,"{'muct_id': '623', 'lighting': 'y', 'race_guess': 'b', 'gender_guess': 'm', 'quality': '3', 'quality_eyes': '3', 'quality_mouth': '3', 'quality_ears': '3', 'quality_hair': '3', 'quality_neck': '3', 'facial_hair': '1.0', 'notes': 'mouth', 'race_common': 'black', 'gender_common': 'man'}","{'muct_id': '55', 'lighting': 'r', 'race_guess': 'b', 'gender_guess': 'm', 'quality': '3', 'quality_eyes': '3', 'quality_mouth': '3', 'quality_ears': '3', 'quality_hair': '3', 'quality_neck': '3', 'facial_hair': '3.0', 'notes': 'beard', 'race_common': 'black', 'gender_common': 'man'}",,,,,,,,,,,,,,,,,,,,,,,,,,,,,,,,,,,,,,,,,,,,,,627557de7e4fb4dabf0f6b7d,6270a134c9156018b145dc21,610d170f7bb4e720cb85b6b2,,,,,,,,,,,,,,,,,,,,,0.7945126891136169,"[0.8272554278373718, 0.8318915367126465]",,,,
20926,627558a81a371c538416ce7a,Chrome,,main_task,,,chris,"5/6/2022, 1:19:36 PM",,0.0-84.0,pilot_prolific_afc_0_25,,,,,,,,3266.2999999523163,"<p style='font-size: 150%'><b>You have finished Part 1!</b></p><p>Nice job! On this section, you averaged <b>90% accuracy</b>.</p><p>You're on track to earn a good bonus. Keep up the good work!</p><p>Click 'Next' to continue to Part 2.</p>",156637.0,,89.0,,bonus_update,,,,,,,,,,0,encoding,2.6799999999999997,,,,,,,,,,,,,,,,,,,,,,,,,,,,,,,,,,,,,,,,,,,627557f2a4d61882cd69ee60,6270a134c9156018b145dc21,594ad91fa6fb8200018f720c,,,,,,,,,,,,,,,,,,,,,,,,,,
20927,627558aa1a371c538416ce7b,Chrome,1.0,main_task,1.0,1.0,chris,"5/6/2022, 1:19:47 PM",xp5c2yybmovlo1rnvk6q,0.0-18.0,pilot_prolific_afc_0_25,37,woman,013,0.0,white,25L,C,2319,"['../stimuli/version1_gray_lm/id013_25L_C.png', '../stimuli/version1_gray_lm/id123_25R_U.png', '../stimuli/version1_gray_lm/id123_00C_D.png']",180853.0,0.0,23.0,8.0,encoding,woman,123,"[1, 2]",white,"['25R', '00C']","['U', 'D']",,"{'muct_id': '14', 'lighting': 'q', 'race_guess': 'w', 'gender_guess': 'w', 'quality': '3', 'quality_eyes': '3', 'quality_mouth': '3', 'quality_ears': '3', 'quality_hair': '3', 'quality_neck': '3', 'facial_hair': '0.0', 'notes': None, 'race_common': 'white', 'gender_common': 'woman'}","{'muct_id': '76', 'lighting': 'q', 'race_guess': 'w', 'gender_guess': 'w', 'quality': '2', 'quality_eyes': '2', 'quality_mouth': '3', 'quality_ears': '2', 'quality_hair': '2', 'quality_neck': '3', 'facial_hair': '0.0', 'notes': 'hair', 'race_common': 'white', 'gender_common': 'woman'}",,,,,,,,,,,,,,,,,,,,,,,,,,,,,,,,,,,,,,,,,,,,,,627557de7e4fb4dabf0f6b7d,6270a134c9156018b145dc21,610d170f7bb4e720cb85b6b2,,,,,,,,,,,,,,,,,,,,,0.8481948375701904,"[0.8166874647140503, 0.8291328549385071]",,,,
20928,627558ae1a371c538416ce7c,Chrome,3.0,main_task,0.0,1.0,chris,"5/6/2022, 1:19:52 PM",xp5c2yybmovlo1rnvk6q,0.0-20.0,pilot_prolific_afc_0_25,40,woman,017,0.0,white,00C,D,3667,"['../stimuli/version1_gray_lm/id017_00C_D.png', '../stimuli/version1_gray_lm/id101_25L_U.png', '../stimuli/version1_gray_lm/id101_25R_C.png']",185613.0,0.0,25.0,9.0,encoding,woman,101,"[1, 2]",white,"['25L', '25R']","['U', 'C']",,"{'muct_id': '19', 'lighting': 'r', 'race_guess': 'w', 'gender_guess': 'w', 'quality': '3', 'quality_eyes': '3', 'quality_mouth': '3', 'quality_ears': '3', 'quality_hair': '3', 'quality_neck': '3', 'facial_hair': '0.0', 'notes': None, 'race_common': 'white', 'gender_common': 'woman'}","{'muct_id': '281', 'lighting': 't', 'race_guess': 'w', 'gender_guess': 'w', 'quality': '3', 'quality_eyes': '3', 'quality_mouth': '3', 'quality_ears': '3', 'quality_hair': '3', 'quality_neck': '3', 'facial_hair': '0.0', 'notes': None, 'race_common': 'white', 'gender_common': 'woman'}",,,,,,,,,,,,,,,,,,,,,,,,,,,,,,,,,,,,,,,,,,,,,,627557de7e4fb4dabf0f6b7d,6270a134c9156018b145dc21,610d170f7bb4e720cb85b6b2,,,,,,,,,,,,,,,,,,,,,0.8543451428413391,"[0.7889022827148438, 0.8576162457466125]",,,,
20929,627558b21a371c538416ce7d,Chrome,2.0,main_task,1.0,2.0,chris,"5/6/2022, 1:19:55 PM",xp5c2yybmovlo1rnvk6q,0.0-22.0,pilot_prolific_afc_0_25,39,man,121,1.0,black,00C,C,2888,"['../stimuli/version1_gray_lm/id091_25R_D.png', '../stimuli/version1_gray_lm/id121_00C_C.png', '../stimuli/version1_gray_lm/id091_25L_U.png']",189340.0,0.0,27.0,10.0,encoding,man,091,"[0, 2]",black,"['25R', '25L']","['D', 'U']",,"{'muct_id': '423', 'lighting': 'w', 'race_guess': 'b', 'gender_guess': 'm', 'quality': '3', 'quality_eyes': '3', 'quality_mouth': '3', 'quality_ears': '3', 'quality_hair': '3', 'quality_neck': '3', 'facial_hair': '1.0', 'notes': None, 'race_common': 'black', 'gender_common': 'man'}","{'muct_id': '260', 'lighting': 't', 'race_guess': 'b', 'gender_guess': 'm', 'quality': '3', 'quality_eyes': '3', 'quality_mouth': '3', 'quality_ears': '3', 'quality_hair': '3', 'quality_neck': '3', 'facial_hair': '4.0', 'notes': 'beard', 'race_common': 'black', 'gender_common': 'man'}",,,,,,,,,,,,,,,,,,,,,,,,,,,,,,,,,,,,,,,,,,,,,,627557de7e4fb4dabf0f6b7d,6270a134c9156018b145dc21,610d170f7bb4e720cb85b6b2,,,,,,,,,,,,,,,,,,,,,0.8360601663589478,"[0.8263843655586243, 0.8089982271194458]",,,,
20930,627558b61a371c538416ce7e,Chrome,2.0,main_task,1.0,2.0,chris,"5/6/2022, 1:19:59 PM",xp5c2yybmovlo1rnvk6q,0.0-24.0,pilot_prolific_afc_0_25,39,man,113,1.0,black,25R,D,2489,"['../stimuli/version1_gray_lm/id117_25L_U.png', '../stimuli/version1_gray_lm/id113_25R_D.png', '../stimuli/version1_gray_lm/id117_00C_C.png']",193333.0,0.0,29.0,11.0,encoding,man,117,"[0, 2]",black,"['25L', '00C']","['U', 'C']",,"{'muct_id': '407', 'lighting': 'x', 'race_guess': 'u', 'gender_guess': 'm', 'quality': '3', 'quality_eyes': '3', 'quality_mouth': '3', 'quality_ears': '3', 'quality_hair': '3', 'quality_neck': '3', 'facial_hair': '3.0', 'notes': 'beard', 'race_common': 'black', 'gender_common': 'man'}","{'muct_id': '417', 'lighting': 'w', 'race_guess': 'b', 'gender_guess': 'm', 'quality': '3', 'quality_eyes': '3', 'quality_mouth': '3', 'quality_ears': '3', 'quality_hair': '3', 'quality_neck': '3', 'facial_hair': '1.0', 'notes': 'mouth', 'race_common': 'black', 'gender_common': 'man'}",,,,,,,,,,,,,,,,,,,,,,,,,,,,,,,,,,,,,,,,,,,,,,627557de7e4fb4dabf0f6b7d,6270a134c9156018b145dc21,610d170f7bb4e720cb85b6b2,,,,,,,,,,,,,,,,,,,,,0.810193657875061,"[0.7983081936836243, 0.8551556468009949]",,,,
20931,627558bb1a371c538416ce7f,Chrome,2.0,main_task,0.0,3.0,chris,"5/6/2022, 1:20:04 PM",xp5c2yybmovlo1rnvk6q,0.0-26.0,pilot_prolific_afc_0_25,39,woman,042,2.0,white,00C,U,3723,"['../stimuli/version1_gray_lm/id152_25R_C.png', '../stimuli/version1_gray_lm/id152_25L_D.png', '../stimuli/version1_gray_lm/id042_00C_U.png']",198087.0,0.0,31.0,12.0,encoding,woman,152,"[0, 1]",white,"['25R', '25L']","['C', 'D']",,"{'muct_id': '57', 'lighting': 'r', 'race_guess': 'b', 'gender_guess': 'w', 'quality': '3', 'quality_eyes': '3', 'quality_mouth': '3', 'quality_ears': '3', 'quality_hair': '3', 'quality_neck': '3', 'facial_hair': '0.0', 'notes': 'earrings', 'race_common': 'white', 'gender_common': 'woman'}","{'muct_id': '446', 'lighting': 'w', 'race_guess': 'w', 'gender_guess': 'w', 'quality': '3', 'quality_eyes': '3', 'quality_mouth': '3', 'quality_ears': '3', 'quality_hair': '3', 'quality_neck': '3', 'facial_hair': '0.0', 'notes': None, 'race_common': 'white', 'gender_common': 'woman'}",,,,,,,,,,,,,,,,,,,,,,,,,,,,,,,,,,,,,,,,,,,,,,627557de7e4fb4dabf0f6b7d,6270a134c9156018b145dc21,610d170f7bb4e720cb85b6b2,,,,,,,,,,,,,,,,,,,,,0.8098611235618591,"[0.8097773194313049, 0.8412463068962097]",,,,
20932,627558c01a371c538416ce80,Chrome,1.0,main_task,1.0,1.0,chris,"5/6/2022, 1:20:09 PM",xp5c2yybmovlo1rnvk6q,0.0-28.0,pilot_prolific_afc_0_25,37,man,124,0.0,black,25L,U,3912,"['../stimuli/version1_gray_lm/id124_25L_U.png', '../stimuli/version1_gray_lm/id137_00C_D.png', '../stimuli/version1_gray_lm/id137_25R_C.png']",203291.0,0.0,33.0,13.0,encoding,man,137,"[1, 2]",black,"['00C', '25R']","['D', 'C']",,"{'muct_id': '431', 'lighting': 'x', 'race_guess': 'b', 'gender_guess': 'u', 'quality': '3', 'quality_eyes': '3', 'quality_mouth': '3', 'quality_ears': '3', 'quality_hair': '3', 'quality_neck': '3', 'facial_hair': '0.0', 'notes': 'mouth', 'race_common': 'black', 'gender_common': 'man'}","{'muct_id': '617', 'lighting': 'y', 'race_guess': 'b', 'gender_guess': 'w', 'quality': '3', 'quality_eyes': '3', 'quality_mouth': '3', 'quality_ears': '3', 'quality_hair': '3', 'quality_neck': '3', 'facial_hair': '0.0', 'notes': 'mouth', 'race_common': 'black', 'gender_common': 'man'}",,,,,,,,,,,,,,,,,,,,,,,,,,,,,,,,,,,,,,,,,,,,,,627557de7e4fb4dabf0f6b7d,6270a134c9156018b145dc21,610d170f7bb4e720cb85b6b2,,,,,,,,,,,,,,,,,,,,,0.7988103628158569,"[0.8765964508056641, 0.8038954734802246]",,,,
20933,627558c41a371c538416ce81,Chrome,1.0,main_task,1.0,1.0,chris,"5/6/2022, 1:20:14 PM",xp5c2yybmovlo1rnvk6q,0.0-30.0,pilot_prolific_afc_0_25,37,man,028,0.0,black,25L,C,3260,"['../stimuli/version1_gray_lm/id028_25L_C.png', '../stimuli/version1_gray_lm/id132_25R_D.png', '../stimuli/version1_gray_lm/id132_00C_U.png']",207605.0,0.0,35.0,14.0,encoding,man,132,"[1, 2]",black,"['25R', '00C']","['D', 'U']",,"{'muct_id': '38', 'lighting': 'q', 'race_guess': 'b', 'gender_guess': 'm', 'quality': '3', 'quality_eyes': '3', 'quality_mouth': '3', 'quality_ears': '3', 'quality_hair': '3', 'quality_neck': '3', 'facial_hair': '2.0', 'notes': None, 'race_common': 'black', 'gender_common': 'man'}","{'muct_id': '450', 'lighting': 'w', 'race_guess': 'b', 'gender_guess': 'm', 'quality': '3', 'quality_eyes': '3', 'quality_mouth': '3', 'quality_ears': '3', 'quality_hair': '3', 'quality_neck': '3', 'facial_hair': '4.0', 'notes': 'mouth', 'race_common': 'black', 'gender_common': 'man'}",,,,,,,,,,,,,,,,,,,,,,,,,,,,,,,,,,,,,,,,,,,,,,627557de7e4fb4dabf0f6b7d,6270a134c9156018b145dc21,610d170f7bb4e720cb85b6b2,,,,,,,,,,,,,,,,,,,,,0.862675666809082,"[0.8125796914100647, 0.8478831052780151]",,,,
20934,627558ca1a371c538416ce82,Chrome,3.0,main_task,1.0,3.0,chris,"5/6/2022, 1:20:19 PM",xp5c2yybmovlo1rnvk6q,0.0-32.0,pilot_prolific_afc_0_25,40,man,012,2.0,white,25L,D,4247,"['../stimuli/version1_gray_lm/id093_00C_C.png', '../stimuli/version1_gray_lm/id093_25R_U.png', '../stimuli/version1_gray_lm/id012_25L_D.png']",213051.0,0.0,37.0,15.0,encoding,man,093,"[0, 1]",white,"['00C', '25R']","['C', 'U']",,"{'muct_id': '12', 'lighting': 'q', 'race_guess': 'i', 'gender_guess': 'm', 'quality': '3', 'quality_eyes': '3', 'quality_mouth': '3', 'quality_ears': '3', 'quality_hair': '3', 'quality_neck': '3', 'facial_hair': '2.0', 'notes': None, 'race_common': 'white', 'gender_common': 'man'}","{'muct_id': '263', 'lighting': 'u', 'race_guess': 'w', 'gender_guess': 'm', 'quality': '3', 'quality_eyes': '3', 'quality_mouth': '3', 'quality_ears': '3', 'quality_hair': '3', 'quality_neck': '3', 'facial_hair': '2.0', 'notes': None, 'race_common': 'white', 'gender_common': 'man'}",,,,,,,,,,,,,,,,,,,,,,,,,,,,,,,,,,,,,,,,,,,,,,627557de7e4fb4dabf0f6b7d,6270a134c9156018b145dc21,610d170f7bb4e720cb85b6b2,,,,,,,,,,,,,,,,,,,,,0.8482975363731384,"[0.8572120070457458, 0.8460677862167358]",,,,
20935,627558cb1a371c538416ce83,Chrome,3.0,main_task,0.0,1.0,chris,"5/6/2022, 1:20:11 PM",fk0tx48d0yco5xjacw9q,0.0-86.0-0.0,pilot_prolific_afc_0_25,40,,,917.0,,,,2426,"['../stimuli/objectome/917.jpeg', '../stimuli/objectome/2082.jpeg', '../stimuli/objectome/2092.jpeg']",191669.0,0.0,91.0,1.0,filler,,,,,,,,,,,,,animals,bear,animals,ELEPHANT_M,within,"{'1': None, '2': None, '3': None}",animals,"[2082, 2092]",bear,V3,,,,,,,,,,,,,,,,,,,,,,,,,,,,,,,,,627557f2a4d61882cd69ee60,6270a134c9156018b145dc21,594ad91fa6fb8200018f720c,,,,,,,,,,,,,,,,,,,,,,,,,,
20936,627558cd1a371c538416ce84,Chrome,3.0,main_task,1.0,3.0,chris,"5/6/2022, 1:20:22 PM",xp5c2yybmovlo1rnvk6q,0.0-34.0,pilot_prolific_afc_0_25,40,woman,150,2.0,white,25R,U,2176,"['../stimuli/version1_gray_lm/id051_25L_C.png', '../stimuli/version1_gray_lm/id051_00C_D.png', '../stimuli/version1_gray_lm/id150_25R_U.png']",216446.0,0.0,39.0,16.0,encoding,woman,051,"[0, 1]",white,"['25L', '00C']","['C', 'D']",,"{'muct_id': '422', 'lighting': 'w', 'race_guess': 'u', 'gender_guess': 'w', 'quality': '3', 'quality_eyes': '3', 'quality_mouth': '3', 'quality_ears': '3', 'quality_hair': '3', 'quality_neck': '3', 'facial_hair': '0.0', 'notes': 'mouth', 'race_common': 'white', 'gender_common': 'woman'}","{'muct_id': '74', 'lighting': 'q', 'race_guess': 'w', 'gender_guess': 'w', 'quality': '3', 'quality_eyes': '3', 'quality_mouth': '3', 'quality_ears': '3', 'quality_hair': '3', 'quality_neck': '3', 'facial_hair': '0.0', 'notes': None, 'race_common': 'white', 'gender_common': 'woman'}",,,,,,,,,,,,,,,,,,,,,,,,,,,,,,,,,,,,,,,,,,,,,,627557de7e4fb4dabf0f6b7d,6270a134c9156018b145dc21,610d170f7bb4e720cb85b6b2,,,,,,,,,,,,,,,,,,,,,0.8663346767425537,"[0.8625381588935852, 0.8626878261566162]",,,,
20937,627558ce1a371c538416ce85,Chrome,1.0,main_task,1.0,1.0,chris,"5/6/2022, 1:20:14 PM",fk0tx48d0yco5xjacw9q,0.0-86.1-0.1,pilot_prolific_afc_0_25,37,,,917.0,,,,1066,"['../stimuli/objectome/917.jpeg', '../stimuli/objectome/2082.jpeg', '../stimuli/objectome/2092.jpeg']",194323.0,0.0,93.0,2.0,filler,,,,,,,,,,,,,animals,ELEPHANT_M,animals,ELEPHANT_M,within,"{'1': None, '2': None, '3': None}",animals,"[2082, 2092]",bear,V3,,,,,,,,,,,,,,,,,,,,,,,,,,,,,,,,,627557f2a4d61882cd69ee60,6270a134c9156018b145dc21,594ad91fa6fb8200018f720c,,,,,,,,,,,,,,,,,,,,,,,,,,
20938,627558d01a371c538416ce86,Chrome,2.0,main_task,1.0,2.0,chris,"5/6/2022, 1:20:16 PM",fk0tx48d0yco5xjacw9q,0.0-87.0-0.0,pilot_prolific_afc_0_25,39,,,1550.0,,,,1789,"['../stimuli/objectome/1474.jpeg', '../stimuli/objectome/1550.jpeg', '../stimuli/objectome/1476.jpeg']",196649.0,0.0,95.0,3.0,filler,,,,,,,,,,,,,chairs,_031,chairs,_031,within,"{'1': None, '2': None, '3': None}",chairs,"[1474, 1476]",_014,V3,,,,,,,,,,,,,,,,,,,,,,,,,,,,,,,,,627557f2a4d61882cd69ee60,6270a134c9156018b145dc21,594ad91fa6fb8200018f720c,,,,,,,,,,,,,,,,,,,,,,,,,,
20939,627558d21a371c538416ce87,Chrome,1.0,main_task,1.0,1.0,chris,"5/6/2022, 1:20:18 PM",fk0tx48d0yco5xjacw9q,0.0-88.0-0.0,pilot_prolific_afc_0_25,37,,,3031.0,,,,1690,"['../stimuli/objectome/3031.jpeg', '../stimuli/objectome/2841.jpeg', '../stimuli/objectome/2868.jpeg']",198612.0,0.0,97.0,4.0,filler,,,,,,,,,,,,,planes,sopwith,planes,sopwith,within,"{'1': None, '2': None, '3': None}",planes,"[2841, 2868]",mig29,V3,,,,,,,,,,,,,,,,,,,,,,,,,,,,,,,,,627557f2a4d61882cd69ee60,6270a134c9156018b145dc21,594ad91fa6fb8200018f720c,,,,,,,,,,,,,,,,,,,,,,,,,,
20940,627558d21a371c538416ce88,Chrome,2.0,main_task,1.0,2.0,chris,"5/6/2022, 1:20:28 PM",xp5c2yybmovlo1rnvk6q,0.0-36.0,pilot_prolific_afc_0_25,39,man,021,1.0,black,00C,U,4205,"['../stimuli/version1_gray_lm/id004_25R_D.png', '../stimuli/version1_gray_lm/id021_00C_U.png', '../stimuli/version1_gray_lm/id004_25L_C.png']",221549.0,0.0,41.0,17.0,encoding,man,004,"[0, 2]",black,"['25R', '25L']","['D', 'C']",,"{'muct_id': '25', 'lighting': 'r', 'race_guess': 'b', 'gender_guess': 'm', 'quality': '3', 'quality_eyes': '3', 'quality_mouth': '3', 'quality_ears': '3', 'quality_hair': '3', 'quality_neck': '3', 'facial_hair': '2.0', 'notes': None, 'race_common': 'black', 'gender_common': 'man'}","{'muct_id': '4', 'lighting': 'q', 'race_guess': 'b', 'gender_guess': 'm', 'quality': '3', 'quality_eyes': '3', 'quality_mouth': '3', 'quality_ears': '3', 'quality_hair': '3', 'quality_neck': '3', 'facial_hair': '2.0', 'notes': None, 'race_common': 'black', 'gender_common': 'man'}",,,,,,,,,,,,,,,,,,,,,,,,,,,,,,,,,,,,,,,,,,,,,,627557de7e4fb4dabf0f6b7d,6270a134c9156018b145dc21,610d170f7bb4e720cb85b6b2,,,,,,,,,,,,,,,,,,,,,0.7686384320259094,"[0.8541693687438965, 0.8772100806236267]",,,,
20941,627558d61a371c538416ce89,Chrome,3.0,main_task,0.0,1.0,chris,"5/6/2022, 1:20:31 PM",xp5c2yybmovlo1rnvk6q,0.0-38.0,pilot_prolific_afc_0_25,40,man,002,0.0,white,25L,D,2594,"['../stimuli/version1_gray_lm/id002_25L_D.png', '../stimuli/version1_gray_lm/id073_00C_C.png', '../stimuli/version1_gray_lm/id073_25R_U.png']",225449.0,0.0,43.0,18.0,encoding,man,073,"[1, 2]",white,"['00C', '25R']","['C', 'U']",,"{'muct_id': '2', 'lighting': 'r', 'race_guess': 'w', 'gender_guess': 'm', 'quality': '3', 'quality_eyes': '3', 'quality_mouth': '3', 'quality_ears': '3', 'quality_hair': '3', 'quality_neck': '3', 'facial_hair': '2.0', 'notes': 'eyes', 'race_common': 'white', 'gender_common': 'man'}","{'muct_id': '225', 'lighting': 'u', 'race_guess': 'w', 'gender_guess': 'm', 'quality': '3', 'quality_eyes': '3', 'quality_mouth': '3', 'quality_ears': '3', 'quality_hair': '3', 'quality_neck': '3', 'facial_hair': '2.0', 'notes': None, 'race_common': 'white', 'gender_common': 'man'}",,,,,,,,,,,,,,,,,,,,,,,,,,,,,,,,,,,,,,,,,,,,,,627557de7e4fb4dabf0f6b7d,6270a134c9156018b145dc21,610d170f7bb4e720cb85b6b2,,,,,,,,,,,,,,,,,,,,,0.8685739040374756,"[0.8617779016494751, 0.8360046744346619]",,,,
20942,627558d81a371c538416ce8a,Chrome,1.0,main_task,1.0,1.0,chris,"5/6/2022, 1:20:24 PM",fk0tx48d0yco5xjacw9q,0.0-90.0,pilot_prolific_afc_0_25,37,,,1351.0,,,,2248,"['../stimuli/objectome/1351.jpeg', '../stimuli/objectome/1405.jpeg', '../stimuli/objectome/1406.jpeg']",204425.0,0.0,100.0,5.0,filler,,,,,,,,,,,,,chairs,_008,chairs,_008,within,"{'1': None, '2': None, '3': None}",chairs,"[1405, 1406]",_011,V3,,,,,,,,,,,,,,,,,,,,,,,,,,,,,,,,,627557f2a4d61882cd69ee60,6270a134c9156018b145dc21,594ad91fa6fb8200018f720c,,,,,,,,,,,,,,,,,,,,,,,,,,
20943,627558d91a371c538416ce8b,Chrome,2.0,main_task,1.0,2.0,chris,"5/6/2022, 1:20:26 PM",fk0tx48d0yco5xjacw9q,0.0-92.0,pilot_prolific_afc_0_25,39,,,70.0,,,,1074,"['../stimuli/objectome/535.jpeg', '../stimuli/objectome/70.jpeg', '../stimuli/objectome/537.jpeg']",206078.0,0.0,102.0,6.0,filler,,,,,,,,,,,,,animals,GORILLA,animals,GORILLA,within,"{'1': None, '2': None, '3': None}",animals,"[535, 537]",hedgehog,V0,,,,,,,,,,,,,,,,,,,,,,,,,,,,,,,,,627557f2a4d61882cd69ee60,6270a134c9156018b145dc21,594ad91fa6fb8200018f720c,,,,,,,,,,,,,,,,,,,,,,,,,,
20944,627558da1a371c538416ce8c,Chrome,3.0,main_task,1.0,3.0,chris,"5/6/2022, 1:20:35 PM",xp5c2yybmovlo1rnvk6q,0.0-40.0,pilot_prolific_afc_0_25,40,woman,020,2.0,black,00C,C,2604,"['../stimuli/version1_gray_lm/id068_25R_D.png', '../stimuli/version1_gray_lm/id068_25L_U.png', '../stimuli/version1_gray_lm/id020_00C_C.png']",228786.0,0.0,45.0,19.0,encoding,woman,068,"[0, 1]",black,"['25R', '25L']","['D', 'U']",,"{'muct_id': '24', 'lighting': 'q', 'race_guess': 'b', 'gender_guess': 'w', 'quality': '3', 'quality_eyes': '3', 'quality_mouth': '3', 'quality_ears': '3', 'quality_hair': '3', 'quality_neck': '3', 'facial_hair': '0.0', 'notes': None, 'race_common': 'black', 'gender_common': 'woman'}","{'muct_id': '213', 'lighting': 'u', 'race_guess': 'b', 'gender_guess': 'w', 'quality': '3', 'quality_eyes': '3', 'quality_mouth': '3', 'quality_ears': '3', 'quality_hair': '3', 'quality_neck': '3', 'facial_hair': '0.0', 'notes': None, 'race_common': 'black', 'gender_common': 'woman'}",,,,,,,,,,,,,,,,,,,,,,,,,,,,,,,,,,,,,,,,,,,,,,627557de7e4fb4dabf0f6b7d,6270a134c9156018b145dc21,610d170f7bb4e720cb85b6b2,,,,,,,,,,,,,,,,,,,,,0.8305983543395996,"[0.815949022769928, 0.8137908577919006]",,,,
20945,627558db1a371c538416ce8d,Chrome,2.0,main_task,1.0,2.0,chris,"5/6/2022, 1:20:28 PM",fk0tx48d0yco5xjacw9q,0.0-94.0,pilot_prolific_afc_0_25,39,,,886.0,,,,1633,"['../stimuli/objectome/997.jpeg', '../stimuli/objectome/886.jpeg', '../stimuli/objectome/973.jpeg']",207961.0,0.0,104.0,7.0,filler,,,,,,,,,,,,,animals,ELEPHANT_M,animals,ELEPHANT_M,within,"{'1': None, '2': None, '3': None}",animals,"[997, 973]",LIONESS,V3,,,,,,,,,,,,,,,,,,,,,,,,,,,,,,,,,627557f2a4d61882cd69ee60,6270a134c9156018b145dc21,594ad91fa6fb8200018f720c,,,,,,,,,,,,,,,,,,,,,,,,,,
20946,627558dd1a371c538416ce8e,Chrome,3.0,main_task,1.0,3.0,chris,"5/6/2022, 1:20:38 PM",xp5c2yybmovlo1rnvk6q,0.0-42.0,pilot_prolific_afc_0_25,40,man,041,2.0,white,25R,C,2287,"['../stimuli/version1_gray_lm/id092_25L_D.png', '../stimuli/version1_gray_lm/id092_00C_U.png', '../stimuli/version1_gray_lm/id041_25R_C.png']",231911.0,0.0,47.0,20.0,encoding,man,092,"[0, 1]",white,"['25L', '00C']","['D', 'U']",,"{'muct_id': '56', 'lighting': 'q', 'race_guess': 'w', 'gender_guess': 'm', 'quality': '3', 'quality_eyes': '3', 'quality_mouth': '3', 'quality_ears': '3', 'quality_hair': '3', 'quality_neck': '3', 'facial_hair': '0.0', 'notes': None, 'race_common': 'white', 'gender_common': 'man'}","{'muct_id': '261', 'lighting': 'v', 'race_guess': 'w', 'gender_guess': 'm', 'quality': '2', 'quality_eyes': '2', 'quality_mouth': '3', 'quality_ears': '3', 'quality_hair': '3', 'quality_neck': '3', 'facial_hair': '0.0', 'notes': None, 'race_common': 'white', 'gender_common': 'man'}",,,,,,,,,,,,,,,,,,,,,,,,,,,,,,,,,,,,,,,,,,,,,,627557de7e4fb4dabf0f6b7d,6270a134c9156018b145dc21,610d170f7bb4e720cb85b6b2,,,,,,,,,,,,,,,,,,,,,0.7993043661117554,"[0.8251421451568604, 0.833930253982544]",,,,
20947,627558dd1a371c538416ce8f,Chrome,3.0,main_task,0.0,2.0,chris,"5/6/2022, 1:20:30 PM",fk0tx48d0yco5xjacw9q,0.0-96.0,pilot_prolific_afc_0_25,40,,,1388.0,,,,1737,"['../stimuli/objectome/1276.jpeg', '../stimuli/objectome/1388.jpeg', '../stimuli/objectome/1259.jpeg']",209917.0,0.0,106.0,8.0,filler,,,,,,,,,,,,,chairs,_001,chairs,_010,within,"{'1': None, '2': None, '3': None}",chairs,"[1276, 1259]",_001,V3,,,,,,,,,,,,,,,,,,,,,,,,,,,,,,,,,627557f2a4d61882cd69ee60,6270a134c9156018b145dc21,594ad91fa6fb8200018f720c,,,,,,,,,,,,,,,,,,,,,,,,,,
20948,627558df1a371c538416ce90,Chrome,1.0,main_task,0.0,2.0,chris,"5/6/2022, 1:20:32 PM",fk0tx48d0yco5xjacw9q,0.0-98.0,pilot_prolific_afc_0_25,37,,,911.0,,,,1887,"['../stimuli/objectome/927.jpeg', '../stimuli/objectome/911.jpeg', '../stimuli/objectome/944.jpeg']",212056.0,0.0,108.0,9.0,filler,,,,,,,,,,,,,animals,GORILLA,animals,ELEPHANT_M,within,"{'1': None, '2': None, '3': None}",animals,"[927, 944]",GORILLA,V3,,,,,,,,,,,,,,,,,,,,,,,,,,,,,,,,,627557f2a4d61882cd69ee60,6270a134c9156018b145dc21,594ad91fa6fb8200018f720c,,,,,,,,,,,,,,,,,,,,,,,,,,
20949,627558e01a371c538416ce91,Chrome,3.0,main_task,1.0,3.0,chris,"5/6/2022, 1:20:41 PM",xp5c2yybmovlo1rnvk6q,0.0-44.0,pilot_prolific_afc_0_25,40,man,146,2.0,white,00C,U,2596,"['../stimuli/version1_gray_lm/id100_25L_C.png', '../stimuli/version1_gray_lm/id100_25R_D.png', '../stimuli/version1_gray_lm/id146_00C_U.png']",235516.0,0.0,49.0,21.0,encoding,man,100,"[0, 1]",white,"['25L', '25R']","['C', 'D']",,"{'muct_id': '254', 'lighting': 'v', 'race_guess': 'w', 'gender_guess': 'm', 'quality': '2', 'quality_eyes': '2', 'quality_mouth': '3', 'quality_ears': '3', 'quality_hair': '2', 'quality_neck': '3', 'facial_hair': '0.0', 'notes': 'hair', 'race_common': 'white', 'gender_common': 'man'}","{'muct_id': '280', 'lighting': 'u', 'race_guess': 'w', 'gender_guess': 'm', 'quality': '3', 'quality_eyes': '3', 'quality_mouth': '3', 'quality_ears': '3', 'quality_hair': '3', 'quality_neck': '3', 'facial_hair': '0.0', 'notes': None, 'race_common': 'white', 'gender_common': 'man'}",,,,,,,,,,,,,,,,,,,,,,,,,,,,,,,,,,,,,,,,,,,,,,627557de7e4fb4dabf0f6b7d,6270a134c9156018b145dc21,610d170f7bb4e720cb85b6b2,,,,,,,,,,,,,,,,,,,,,0.7735471725463867,"[0.8107101321220398, 0.8157753944396973]",,,,
20950,627558e11a371c538416ce92,Chrome,3.0,main_task,0.0,2.0,chris,"5/6/2022, 1:20:34 PM",aakmssorgglnvyob354f,0.0-2.0-0.0,pilot_prolific_afc_0_25,40,man,010,1.0,latinx,00C,D,10589,"['../stimuli/version1_gray_lm/id087_25R_C.png', '../stimuli/version1_gray_lm/id010_00C_D.png', '../stimuli/version1_gray_lm/id087_25L_U.png']",108956.0,0.0,2.0,1.0,encoding_practice,man,087,"[0, 2]",latinx,"['25R', '25L']","['C', 'U']",,,,,,,,,,,,,,,,,,,,,,,,,,,,,,,,,,,,,,,,,,,,,,,,,6275586845ec75d9f41e68cf,6270a134c9156018b145dc21,61019ecfc479810360afbd54,,,,,,,,,,,,,,,,,,,,,0.8762356042861938,"[0.8183485865592957, 0.853132963180542]",,,,
20951,627558e11a371c538416ce93,Chrome,2.0,main_task,1.0,2.0,chris,"5/6/2022, 1:20:34 PM",fk0tx48d0yco5xjacw9q,0.0-100.0,pilot_prolific_afc_0_25,39,,,1848.0,,,,1851,"['../stimuli/objectome/1498.jpeg', '../stimuli/objectome/1848.jpeg', '../stimuli/objectome/1517.jpeg']",214157.0,0.0,110.0,10.0,filler,,,,,,,,,,,,,planes,_19_flyingBoat,planes,_19_flyingBoat,within,"{'1': None, '2': None, '3': None}",planes,"[1498, 1517]",_01_Airliner_2jetEngines,V3,,,,,,,,,,,,,,,,,,,,,,,,,,,,,,,,,627557f2a4d61882cd69ee60,6270a134c9156018b145dc21,594ad91fa6fb8200018f720c,,,,,,,,,,,,,,,,,,,,,,,,,,
20952,627558e31a371c538416ce94,Chrome,3.0,main_task,1.0,3.0,chris,"5/6/2022, 1:20:36 PM",fk0tx48d0yco5xjacw9q,0.0-102.0,pilot_prolific_afc_0_25,40,,,2972.0,,,,1802,"['../stimuli/objectome/1635.jpeg', '../stimuli/objectome/1616.jpeg', '../stimuli/objectome/2972.jpeg']",216182.0,0.0,112.0,11.0,filler,,,,,,,,,,,,,planes,rdbarren,planes,rdbarren,within,"{'1': None, '2': None, '3': None}",planes,"[1635, 1616]",_05_future,V3,,,,,,,,,,,,,,,,,,,,,,,,,,,,,,,,,627557f2a4d61882cd69ee60,6270a134c9156018b145dc21,594ad91fa6fb8200018f720c,,,,,,,,,,,,,,,,,,,,,,,,,,
20953,627558e41a371c538416ce95,Chrome,3.0,main_task,1.0,3.0,chris,"5/6/2022, 1:20:45 PM",xp5c2yybmovlo1rnvk6q,0.0-46.0,pilot_prolific_afc_0_25,40,man,058,2.0,black,25L,D,2452,"['../stimuli/version1_gray_lm/id098_25R_C.png', '../stimuli/version1_gray_lm/id098_00C_U.png', '../stimuli/version1_gray_lm/id058_25L_D.png']",238999.0,0.0,51.0,22.0,encoding,man,098,"[0, 1]",black,"['25R', '00C']","['C', 'U']",,"{'muct_id': '84', 'lighting': 'q', 'race_guess': 'b', 'gender_guess': 'm', 'quality': '2', 'quality_eyes': '2', 'quality_mouth': '3', 'quality_ears': '3', 'quality_hair': '3', 'quality_neck': '3', 'facial_hair': '3.0', 'notes': 'beard', 'race_common': 'black', 'gender_common': 'man'}","{'muct_id': '274', 'lighting': 't', 'race_guess': 'b', 'gender_guess': 'm', 'quality': '3', 'quality_eyes': '3', 'quality_mouth': '3', 'quality_ears': '3', 'quality_hair': '3', 'quality_neck': '3', 'facial_hair': '4.0', 'notes': None, 'race_common': 'black', 'gender_common': 'man'}",,,,,,,,,,,,,,,,,,,,,,,,,,,,,,,,,,,,,,,,,,,,,,627557de7e4fb4dabf0f6b7d,6270a134c9156018b145dc21,610d170f7bb4e720cb85b6b2,,,,,,,,,,,,,,,,,,,,,0.8403581380844116,"[0.8504486680030823, 0.7806364893913269]",,,,
20954,627558e51a371c538416ce96,Chrome,2.0,main_task,1.0,2.0,chris,"5/6/2022, 1:20:38 PM",fk0tx48d0yco5xjacw9q,0.0-104.0,pilot_prolific_afc_0_25,39,,,2427.0,,,,1777,"['../stimuli/objectome/1840.jpeg', '../stimuli/objectome/2427.jpeg', '../stimuli/objectome/1848.jpeg']",218210.0,0.0,114.0,12.0,filler,,,,,,,,,,,,,planes,f16,planes,f16,within,"{'1': None, '2': None, '3': None}",planes,"[1840, 1848]",_19_flyingBoat,V3,,,,,,,,,,,,,,,,,,,,,,,,,,,,,,,,,627557f2a4d61882cd69ee60,6270a134c9156018b145dc21,594ad91fa6fb8200018f720c,,,,,,,,,,,,,,,,,,,,,,,,,,
20955,627558e71a371c538416ce97,Chrome,2.0,main_task,1.0,2.0,chris,"5/6/2022, 1:20:39 PM",fk0tx48d0yco5xjacw9q,0.0-106.0,pilot_prolific_afc_0_25,39,,,2110.0,,,,1199,"['../stimuli/objectome/2773.jpeg', '../stimuli/objectome/2110.jpeg', '../stimuli/objectome/2782.jpeg']",219634.0,0.0,116.0,13.0,filler,,,,,,,,,,,,,animals,bear,animals,bear,within,"{'1': None, '2': None, '3': None}",animals,"[2773, 2782]",hedgehog,V3,,,,,,,,,,,,,,,,,,,,,,,,,,,,,,,,,627557f2a4d61882cd69ee60,6270a134c9156018b145dc21,594ad91fa6fb8200018f720c,,,,,,,,,,,,,,,,,,,,,,,,,,
20956,627558e81a371c538416ce98,Chrome,3.0,main_task,0.0,1.0,chris,"5/6/2022, 1:20:49 PM",xp5c2yybmovlo1rnvk6q,0.0-48.0,pilot_prolific_afc_0_25,40,woman,103,0.0,black,25L,C,2920,"['../stimuli/version1_gray_lm/id103_25L_C.png', '../stimuli/version1_gray_lm/id027_00C_U.png', '../stimuli/version1_gray_lm/id027_25R_D.png']",242887.0,0.0,53.0,23.0,encoding,woman,027,"[1, 2]",black,"['00C', '25R']","['U', 'D']",,"{'muct_id': '285', 'lighting': 'v', 'race_guess': 'b', 'gender_guess': 'w', 'quality': '3', 'quality_eyes': '3', 'quality_mouth': '3', 'quality_ears': '3', 'quality_hair': '3', 'quality_neck': '3', 'facial_hair': '0.0', 'notes': 'earrings', 'race_common': 'black', 'gender_common': 'woman'}","{'muct_id': '37', 'lighting': 'q', 'race_guess': 'b', 'gender_guess': 'w', 'quality': '3', 'quality_eyes': '3', 'quality_mouth': '3', 'quality_ears': '3', 'quality_hair': '3', 'quality_neck': '3', 'facial_hair': '0.0', 'notes': 'earrings', 'race_common': 'black', 'gender_common': 'woman'}",,,,,,,,,,,,,,,,,,,,,,,,,,,,,,,,,,,,,,,,,,,,,,627557de7e4fb4dabf0f6b7d,6270a134c9156018b145dc21,610d170f7bb4e720cb85b6b2,,,,,,,,,,,,,,,,,,,,,0.8256258368492126,"[0.7652570605278015, 0.8136028051376343]",,,,
20957,627558e91a371c538416ce99,Chrome,3.0,main_task,1.0,3.0,chris,"5/6/2022, 1:20:41 PM",aakmssorgglnvyob354f,0.0-2.1-0.1,pilot_prolific_afc_0_25,40,man,087,2.0,latinx,00C,U,2349,"['../stimuli/version1_gray_lm/id006_25L_C.png', '../stimuli/version1_gray_lm/id006_25R_D.png', '../stimuli/version1_gray_lm/id087_00C_U.png']",116351.0,0.0,4.0,2.0,encoding_practice,man,006,"[0, 1]",latinx,"['25L', '25R']","['C', 'D']",,,,,,,,,,,,,,,,,,,,,,,,,,,,,,,,,,,,,,,,,,,,,,,,,6275586845ec75d9f41e68cf,6270a134c9156018b145dc21,61019ecfc479810360afbd54,,,,,,,,,,,,,,,,,,,,,0.7981384992599487,"[0.8524004817008972, 0.8448865413665771]",,,,
20958,627558e91a371c538416ce9a,Chrome,3.0,main_task,0.0,2.0,chris,"5/6/2022, 1:20:41 PM",fk0tx48d0yco5xjacw9q,0.0-108.0,pilot_prolific_afc_0_25,40,,,1474.0,,,,1001,"['../stimuli/objectome/1314.jpeg', '../stimuli/objectome/1474.jpeg', '../stimuli/objectome/1315.jpeg']",221665.0,0.0,118.0,14.0,filler,,,,,,,,,,,,,chairs,_004,chairs,_014,within,"{'1': None, '2': None, '3': None}",chairs,"[1314, 1315]",_004,V3,,,,,,,,,,,,,,,,,,,,,,,,,,,,,,,,,627557f2a4d61882cd69ee60,6270a134c9156018b145dc21,594ad91fa6fb8200018f720c,,,,,,,,,,,,,,,,,,,,,,,,,,
20959,627558eb1a371c538416ce9b,Chrome,1.0,main_task,1.0,1.0,chris,"5/6/2022, 1:20:52 PM",xp5c2yybmovlo1rnvk6q,0.0-50.0,pilot_prolific_afc_0_25,37,man,053,0.0,white,00C,C,2771,"['../stimuli/version1_gray_lm/id053_00C_C.png', '../stimuli/version1_gray_lm/id043_25L_D.png', '../stimuli/version1_gray_lm/id043_25R_U.png']",246521.0,0.0,55.0,24.0,encoding,man,043,"[1, 2]",white,"['25L', '25R']","['D', 'U']",,"{'muct_id': '79', 'lighting': 'r', 'race_guess': 'i', 'gender_guess': 'm', 'quality': '2', 'quality_eyes': '2', 'quality_mouth': '3', 'quality_ears': '3', 'quality_hair': '2', 'quality_neck': '3', 'facial_hair': '0.0', 'notes': None, 'race_common': 'white', 'gender_common': 'man'}","{'muct_id': '58', 'lighting': 'q', 'race_guess': 'w', 'gender_guess': 'm', 'quality': '3', 'quality_eyes': '3', 'quality_mouth': '3', 'quality_ears': '3', 'quality_hair': '3', 'quality_neck': '3', 'facial_hair': '0.0', 'notes': None, 'race_common': 'white', 'gender_common': 'man'}",,,,,,,,,,,,,,,,,,,,,,,,,,,,,,,,,,,,,,,,,,,,,,627557de7e4fb4dabf0f6b7d,6270a134c9156018b145dc21,610d170f7bb4e720cb85b6b2,,,,,,,,,,,,,,,,,,,,,0.8254649639129639,"[0.8475186228752136, 0.8206595778465271]",,,,
20960,627558ec1a371c538416ce9c,Chrome,3.0,main_task,0.0,2.0,chris,"5/6/2022, 1:20:44 PM",fk0tx48d0yco5xjacw9q,0.0-110.0,pilot_prolific_afc_0_25,40,,,2849.0,,,,1720,"['../stimuli/objectome/1607.jpeg', '../stimuli/objectome/2849.jpeg', '../stimuli/objectome/1627.jpeg']",224437.0,0.0,120.0,15.0,filler,,,,,,,,,,,,,planes,_05_future,planes,mig29,within,"{'1': None, '2': None, '3': None}",planes,"[1607, 1627]",_05_future,V3,,,,,,,,,,,,,,,,,,,,,,,,,,,,,,,,,627557f2a4d61882cd69ee60,6270a134c9156018b145dc21,594ad91fa6fb8200018f720c,,,,,,,,,,,,,,,,,,,,,,,,,,
20961,627558ee1a371c538416ce9d,Chrome,1.0,main_task,1.0,1.0,chris,"5/6/2022, 1:20:47 PM",fk0tx48d0yco5xjacw9q,0.0-112.0,pilot_prolific_afc_0_25,37,,,1368.0,,,,2171,"['../stimuli/objectome/1368.jpeg', '../stimuli/objectome/1462.jpeg', '../stimuli/objectome/1470.jpeg']",226875.0,0.0,122.0,16.0,filler,,,,,,,,,,,,,chairs,_010,chairs,_010,within,"{'1': None, '2': None, '3': None}",chairs,"[1462, 1470]",_014,V3,,,,,,,,,,,,,,,,,,,,,,,,,,,,,,,,,627557f2a4d61882cd69ee60,6270a134c9156018b145dc21,594ad91fa6fb8200018f720c,,,,,,,,,,,,,,,,,,,,,,,,,,
20962,627558ee1a371c538416ce9e,Chrome,2.0,main_task,1.0,2.0,chris,"5/6/2022, 1:20:55 PM",xp5c2yybmovlo1rnvk6q,0.0-52.0,pilot_prolific_afc_0_25,39,man,107,1.0,black,25L,U,1874,"['../stimuli/version1_gray_lm/id105_25R_D.png', '../stimuli/version1_gray_lm/id107_25L_U.png', '../stimuli/version1_gray_lm/id105_00C_C.png']",249521.0,0.0,57.0,25.0,encoding,man,105,"[0, 2]",black,"['25R', '00C']","['D', 'C']",,"{'muct_id': '297', 'lighting': 't', 'race_guess': 'b', 'gender_guess': 'm', 'quality': '3', 'quality_eyes': '3', 'quality_mouth': '3', 'quality_ears': '3', 'quality_hair': '3', 'quality_neck': '3', 'facial_hair': '4.0', 'notes': 'beard', 'race_common': 'black', 'gender_common': 'man'}","{'muct_id': '290', 'lighting': 't', 'race_guess': 'b', 'gender_guess': 'm', 'quality': '3', 'quality_eyes': '3', 'quality_mouth': '3', 'quality_ears': '3', 'quality_hair': '3', 'quality_neck': '3', 'facial_hair': '2.0', 'notes': None, 'race_common': 'black', 'gender_common': 'man'}",,,,,,,,,,,,,,,,,,,,,,,,,,,,,,,,,,,,,,,,,,,,,,627557de7e4fb4dabf0f6b7d,6270a134c9156018b145dc21,610d170f7bb4e720cb85b6b2,,,,,,,,,,,,,,,,,,,,,0.8199091553688049,"[0.8421586751937866, 0.8415019512176514]",,,,
20963,627558ef1a371c538416ce9f,Chrome,2.0,main_task,1.0,2.0,chris,"5/6/2022, 1:20:48 PM",aakmssorgglnvyob354f,0.0-2.2-0.2,pilot_prolific_afc_0_25,39,man,010,1.0,latinx,25L,U,1741,"['../stimuli/version1_gray_lm/id006_25R_D.png', '../stimuli/version1_gray_lm/id010_25L_U.png', '../stimuli/version1_gray_lm/id006_00C_C.png']",122969.0,0.0,6.0,3.0,encoding_practice,man,006,"[0, 2]",latinx,"['25R', '00C']","['D', 'C']",,,,,,,,,,,,,,,,,,,,,,,,,,,,,,,,,,,,,,,,,,,,,,,,,6275586845ec75d9f41e68cf,6270a134c9156018b145dc21,61019ecfc479810360afbd54,,,,,,,,,,,,,,,,,,,,,0.8330356478691101,"[0.8448865413665771, 0.8316729068756104]",,,,
20964,627558f01a371c538416cea0,Chrome,1.0,main_task,1.0,1.0,chris,"5/6/2022, 1:20:48 PM",fk0tx48d0yco5xjacw9q,0.0-114.0,pilot_prolific_afc_0_25,37,,,177.0,,,,1400,"['../stimuli/objectome/177.jpeg', '../stimuli/objectome/230.jpeg', '../stimuli/objectome/231.jpeg']",228501.0,0.0,124.0,17.0,filler,,,,,,,,,,,,,chairs,_008,chairs,_008,within,"{'1': None, '2': None, '3': None}",chairs,"[230, 231]",_033,V0,,,,,,,,,,,,,,,,,,,,,,,,,,,,,,,,,627557f2a4d61882cd69ee60,6270a134c9156018b145dc21,594ad91fa6fb8200018f720c,,,,,,,,,,,,,,,,,,,,,,,,,,
20965,627558f11a371c538416cea1,Chrome,3.0,main_task,1.0,3.0,chris,"5/6/2022, 1:20:50 PM",fk0tx48d0yco5xjacw9q,0.0-116.0,pilot_prolific_afc_0_25,40,,,2262.0,,,,1103,"['../stimuli/objectome/2137.jpeg', '../stimuli/objectome/2142.jpeg', '../stimuli/objectome/2262.jpeg']",229820.0,0.0,126.0,18.0,filler,,,,,,,,,,,,,animals,breed_pug,animals,breed_pug,within,"{'1': None, '2': None, '3': None}",animals,"[2137, 2142]",blCow,V3,,,,,,,,,,,,,,,,,,,,,,,,,,,,,,,,,627557f2a4d61882cd69ee60,6270a134c9156018b145dc21,594ad91fa6fb8200018f720c,,,,,,,,,,,,,,,,,,,,,,,,,,
20966,627558f21a371c538416cea2,Chrome,2.0,main_task,1.0,2.0,chris,"5/6/2022, 1:20:59 PM",xp5c2yybmovlo1rnvk6q,0.0-54.0,pilot_prolific_afc_0_25,39,man,083,1.0,black,00C,U,2419,"['../stimuli/version1_gray_lm/id030_25R_D.png', '../stimuli/version1_gray_lm/id083_00C_U.png', '../stimuli/version1_gray_lm/id030_25L_C.png']",253090.0,0.0,59.0,26.0,encoding,man,030,"[0, 2]",black,"['25R', '25L']","['D', 'C']",,"{'muct_id': '243', 'lighting': 'v', 'race_guess': 'b', 'gender_guess': 'm', 'quality': '3', 'quality_eyes': '3', 'quality_mouth': '3', 'quality_ears': '3', 'quality_hair': '3', 'quality_neck': '3', 'facial_hair': '0.0', 'notes': None, 'race_common': 'black', 'gender_common': 'man'}","{'muct_id': '41', 'lighting': 'r', 'race_guess': 'b', 'gender_guess': 'm', 'quality': '3', 'quality_eyes': '3', 'quality_mouth': '3', 'quality_ears': '3', 'quality_hair': '3', 'quality_neck': '3', 'facial_hair': '0.0', 'notes': None, 'race_common': 'black', 'gender_common': 'man'}",,,,,,,,,,,,,,,,,,,,,,,,,,,,,,,,,,,,,,,,,,,,,,627557de7e4fb4dabf0f6b7d,6270a134c9156018b145dc21,610d170f7bb4e720cb85b6b2,,,,,,,,,,,,,,,,,,,,,0.75100177526474,"[0.7898308634757996, 0.8285446763038635]",,,,
20967,627558f31a371c538416cea3,Chrome,3.0,main_task,1.0,3.0,chris,"5/6/2022, 1:20:51 PM",fk0tx48d0yco5xjacw9q,0.0-118.0,pilot_prolific_afc_0_25,40,,,1471.0,,,,1439,"['../stimuli/objectome/1431.jpeg', '../stimuli/objectome/1409.jpeg', '../stimuli/objectome/1471.jpeg']",231520.0,0.0,128.0,19.0,filler,,,,,,,,,,,,,chairs,_014,chairs,_014,within,"{'1': None, '2': None, '3': None}",chairs,"[1431, 1409]",_011,V3,,,,,,,,,,,,,,,,,,,,,,,,,,,,,,,,,627557f2a4d61882cd69ee60,6270a134c9156018b145dc21,594ad91fa6fb8200018f720c,,,,,,,,,,,,,,,,,,,,,,,,,,
20968,627558f31a371c538416cea4,Chrome,3.0,main_task,1.0,3.0,chris,"5/6/2022, 1:20:52 PM",aakmssorgglnvyob354f,0.0-2.3-0.3,pilot_prolific_afc_0_25,40,man,010,2.0,latinx,00C,C,1903,"['../stimuli/version1_gray_lm/id006_25L_U.png', '../stimuli/version1_gray_lm/id006_25R_D.png', '../stimuli/version1_gray_lm/id010_00C_C.png']",126986.0,0.0,8.0,4.0,encoding_practice,man,006,"[0, 1]",latinx,"['25L', '25R']","['U', 'D']",1.0,,,,,,,,,,,,,,,,,,,,,,,,,,,,,,,,,,,,,,,,,,,,,,,,6275586845ec75d9f41e68cf,6270a134c9156018b145dc21,61019ecfc479810360afbd54,,,,,,,,,,,,,,,,,,,,,0.8433091044425964,"[0.8106534481048584, 0.8448865413665771]",,,,
20969,627558f41a371c538416cea5,Chrome,1.0,main_task,1.0,1.0,chris,"5/6/2022, 1:20:52 PM",fk0tx48d0yco5xjacw9q,0.0-120.0,pilot_prolific_afc_0_25,37,,,964.0,,,,986,"['../stimuli/objectome/964.jpeg', '../stimuli/objectome/941.jpeg', '../stimuli/objectome/944.jpeg']",232730.0,0.0,130.0,20.0,filler,,,,,,,,,,,,,animals,LIONESS,animals,LIONESS,within,"{'1': None, '2': None, '3': None}",animals,"[941, 944]",GORILLA,V3,,,,,,,,,,,,,,,,,,,,,,,,,,,,,,,,,627557f2a4d61882cd69ee60,6270a134c9156018b145dc21,594ad91fa6fb8200018f720c,,,,,,,,,,,,,,,,,,,,,,,,,,
20970,627558f61a371c538416cea6,Chrome,1.0,main_task,0.0,2.0,chris,"5/6/2022, 1:20:55 PM",fk0tx48d0yco5xjacw9q,0.0-122.0,pilot_prolific_afc_0_25,37,,,1847.0,,,,1355,"['../stimuli/objectome/1512.jpeg', '../stimuli/objectome/1847.jpeg', '../stimuli/objectome/1510.jpeg']",234976.0,0.0,132.0,21.0,filler,,,,,,,,,,,,,planes,_01_Airliner_2jetEngines,planes,_19_flyingBoat,within,"{'1': None, '2': None, '3': None}",planes,"[1512, 1510]",_01_Airliner_2jetEngines,V3,,,,,,,,,,,,,,,,,,,,,,,,,,,,,,,,,627557f2a4d61882cd69ee60,6270a134c9156018b145dc21,594ad91fa6fb8200018f720c,,,,,,,,,,,,,,,,,,,,,,,,,,
20971,627558f71a371c538416cea7,Chrome,1.0,main_task,1.0,1.0,chris,"5/6/2022, 1:21:04 PM",xp5c2yybmovlo1rnvk6q,0.0-56.0,pilot_prolific_afc_0_25,37,woman,018,0.0,white,00C,D,3262,"['../stimuli/version1_gray_lm/id018_00C_D.png', '../stimuli/version1_gray_lm/id084_25R_U.png', '../stimuli/version1_gray_lm/id084_25L_C.png']",257918.0,0.0,61.0,27.0,encoding,woman,084,"[1, 2]",white,"['25R', '25L']","['U', 'C']",,"{'muct_id': '21', 'lighting': 'q', 'race_guess': 'w', 'gender_guess': 'w', 'quality': '3', 'quality_eyes': '3', 'quality_mouth': '3', 'quality_ears': '3', 'quality_hair': '3', 'quality_neck': '3', 'facial_hair': '0.0', 'notes': None, 'race_common': 'white', 'gender_common': 'woman'}","{'muct_id': '248', 'lighting': 'u', 'race_guess': 'w', 'gender_guess': 'w', 'quality': '3', 'quality_eyes': '3', 'quality_mouth': '3', 'quality_ears': '3', 'quality_hair': '3', 'quality_neck': '3', 'facial_hair': '0.0', 'notes': None, 'race_common': 'white', 'gender_common': 'woman'}",,,,,,,,,,,,,,,,,,,,,,,,,,,,,,,,,,,,,,,,,,,,,,627557de7e4fb4dabf0f6b7d,6270a134c9156018b145dc21,610d170f7bb4e720cb85b6b2,,,,,,,,,,,,,,,,,,,,,0.8462492227554321,"[0.8210078477859497, 0.8587931394577026]",,,,
20972,627558f91a371c538416cea8,Chrome,,main_task,,,chris,"5/6/2022, 1:20:57 PM",,0.0-124.0,pilot_prolific_afc_0_25,,,,,,,,2047.6999998092651,"<p style='font-size: 150%'><b>You have finished Part 2!</b></p><p>On this section, you averaged <b>71% accuracy</b>.</p><p>At this rate, you won't earn any bonus above the base rate.<br>Take your time on the next parts to make sure you can make a bonus!</p><p>Click 'Next' to continue to Part 3.</p>",237689.0,,134.0,,bonus_update,,,,,,,,,,0,filler,0.0,,,,,,,,,,,,,,,,,,,,,,,,,,,,,,,,,,,,,,,,,,,627557f2a4d61882cd69ee60,6270a134c9156018b145dc21,594ad91fa6fb8200018f720c,,,,,,,,,,,,,,,,,,,,,,,,,,
