,_id,browser,choice,collection,correct,correct_response,database,datetime,experiment_id,internal_node_id,iteration,key_press,oddity_gender,oddity_identity,oddity_index,oddity_race,oddity_tiltLR,oddity_tiltUD,rt,stimulus,time_elapsed,timed_out,trial_index,trial_number,trial_type,typicals_gender,typicals_identity,typicals_indices,typicals_race,typicals_tiltsLR,typicals_tiltsUD,practice_threshold_met,oddity_meta,typicals_meta,button_pressed,last_trial_type,prediction,choice_category,choice_object,oddity_category,oddity_name,oddity_type,stimulus_response_map,typical_category,typical_indices,typical_name,variation_level,encoding_pair,encoding_type,gender,identity,meta,original_index,original_tiltLR,original_tiltUD,race,response,retrieval_condition,tiltLR,tiltUD,tilt_change,tilt_difference,original_tilt,encoding_accuracy,encoding_avg_rt,encoding_n_trials,experimental_duration,filler_accuracy,filler_avg_rt,filler_n_trials,params,retrieval_accuracy,retrieval_avg_rt,retrieval_n_trials,total_bonus,total_payment,age,gender_other,latinx,session_id,study_id,subject_id,meta_new,meta_old,new_gender,new_identity,new_index,new_race,new_tiltLR,new_tiltUD,old_encoding_pair,old_encoding_type,old_gender,old_identity,old_index,old_original_index,old_original_tiltLR,old_original_tiltUD,old_race,old_tiltLR,old_tiltUD,stimuli
9951,6267214106b19921fe99d77b,Chrome,1.0,main_task,1.0,1.0,chris,"4/25/2022, 4:31:28 PM",ubkhnf1vvemlu6jd18rk,0.0-2.0-0.0,pilot_prolific_test_typicals,37,woman,106,0.0,latinx,25R,D,3773.0,"['../stimuli/version1_gray_lm/id106_25R_D.png', '../stimuli/version1_gray_lm/id107_00C_U.png', '../stimuli/version1_gray_lm/id107_50L_C.png']",84568.0,0.0,2.0,1.0,encoding_practice,man,107,"[1, 2]",latinx,"['00C', '50L']","['U', 'C']",,,,,,,,,,,,,,,,,,,,,,,,,,,,,,,,,,,,,,,,,,,,,,,,,6267206b1871ea3358531c84,6266e20a583caa8581feb914,6266d12bc803262aae0e8de2,,,,,,,,,,,,,,,,,,,,
9952,6267214606b19921fe99d77c,Chrome,2.0,main_task,1.0,2.0,chris,"4/25/2022, 4:31:34 PM",ubkhnf1vvemlu6jd18rk,0.0-2.1-0.1,pilot_prolific_test_typicals,39,man,107,1.0,latinx,50R,C,3207.0,"['../stimuli/version1_gray_lm/id106_00C_D.png', '../stimuli/version1_gray_lm/id107_50R_C.png', '../stimuli/version1_gray_lm/id106_25L_U.png']",90230.0,0.0,4.0,2.0,encoding_practice,woman,106,"[0, 2]",latinx,"['00C', '25L']","['D', 'U']",,,,,,,,,,,,,,,,,,,,,,,,,,,,,,,,,,,,,,,,,,,,,,,,,6267206b1871ea3358531c84,6266e20a583caa8581feb914,6266d12bc803262aae0e8de2,,,,,,,,,,,,,,,,,,,,
9953,6267214d06b19921fe99d77d,Chrome,2.0,main_task,1.0,2.0,chris,"4/25/2022, 4:31:40 PM",ubkhnf1vvemlu6jd18rk,0.0-2.2-0.2,pilot_prolific_test_typicals,39,woman,106,1.0,latinx,50L,C,5118.0,"['../stimuli/version1_gray_lm/id108_00C_D.png', '../stimuli/version1_gray_lm/id106_50L_C.png', '../stimuli/version1_gray_lm/id108_25R_U.png']",96567.0,0.0,6.0,3.0,encoding_practice,woman,108,"[0, 2]",latinx,"['00C', '25R']","['D', 'U']",1.0,,,,,,,,,,,,,,,,,,,,,,,,,,,,,,,,,,,,,,,,,,,,,,,,6267206b1871ea3358531c84,6266e20a583caa8581feb914,6266d12bc803262aae0e8de2,,,,,,,,,,,,,,,,,,,,
9954,6267216106b19921fe99d77e,Chrome,1.0,main_task,1.0,1.0,chris,"4/25/2022, 4:32:00 PM",ubkhnf1vvemlu6jd18rk,0.0-4.0,pilot_prolific_test_typicals,37,man,105,0.0,black,00C,D,5192.0,"['../stimuli/version1_gray_lm/id105_00C_D.png', '../stimuli/version1_gray_lm/id057_50L_U.png', '../stimuli/version1_gray_lm/id057_50R_C.png']",116571.0,0.0,9.0,1.0,encoding,man,057,"[1, 2]",black,"['50L', '50R']","['U', 'C']",,"{'muct_id': '290', 'lighting': 't', 'race_guess': 'b', 'gender_guess': 'm', 'quality': '3', 'quality_eyes': '3', 'quality_mouth': '3', 'quality_ears': '3', 'quality_hair': '3', 'quality_neck': '3', 'facial_hair': '2.0', 'notes': None, 'race_common': 'black', 'gender_common': 'man'}","{'muct_id': '83', 'lighting': 'r', 'race_guess': 'b', 'gender_guess': 'm', 'quality': '3', 'quality_eyes': '3', 'quality_mouth': '3', 'quality_ears': '3', 'quality_hair': '3', 'quality_neck': '3', 'facial_hair': '3.0', 'notes': None, 'race_common': 'black', 'gender_common': 'man'}",,,,,,,,,,,,,,,,,,,,,,,,,,,,,,,,,,,,,,,,,,,,,,6267206b1871ea3358531c84,6266e20a583caa8581feb914,6266d12bc803262aae0e8de2,,,,,,,,,,,,,,,,,,,,
9955,6267216606b19921fe99d77f,Chrome,3.0,main_task,0.0,2.0,chris,"4/25/2022, 4:32:06 PM",ubkhnf1vvemlu6jd18rk,0.0-6.0,pilot_prolific_test_typicals,40,woman,101,1.0,white,25R,D,3883.0,"['../stimuli/version1_gray_lm/id018_25L_U.png', '../stimuli/version1_gray_lm/id101_25R_D.png', '../stimuli/version1_gray_lm/id018_00C_C.png']",121997.0,0.0,11.0,2.0,encoding,woman,018,"[0, 2]",white,"['25L', '00C']","['U', 'C']",,"{'muct_id': '281', 'lighting': 't', 'race_guess': 'w', 'gender_guess': 'w', 'quality': '3', 'quality_eyes': '3', 'quality_mouth': '3', 'quality_ears': '3', 'quality_hair': '3', 'quality_neck': '3', 'facial_hair': '0.0', 'notes': None, 'race_common': 'white', 'gender_common': 'woman'}","{'muct_id': '21', 'lighting': 'q', 'race_guess': 'w', 'gender_guess': 'w', 'quality': '3', 'quality_eyes': '3', 'quality_mouth': '3', 'quality_ears': '3', 'quality_hair': '3', 'quality_neck': '3', 'facial_hair': '0.0', 'notes': None, 'race_common': 'white', 'gender_common': 'woman'}",,,,,,,,,,,,,,,,,,,,,,,,,,,,,,,,,,,,,,,,,,,,,,6267206b1871ea3358531c84,6266e20a583caa8581feb914,6266d12bc803262aae0e8de2,,,,,,,,,,,,,,,,,,,,
9956,6267216a06b19921fe99d780,Chrome,1.0,main_task,1.0,1.0,chris,"4/25/2022, 4:32:09 PM",ubkhnf1vvemlu6jd18rk,0.0-8.0,pilot_prolific_test_typicals,37,man,100,0.0,white,50R,U,2479.0,"['../stimuli/version1_gray_lm/id100_50R_U.png', '../stimuli/version1_gray_lm/id156_00C_C.png', '../stimuli/version1_gray_lm/id156_25L_D.png']",125505.0,0.0,13.0,3.0,encoding,man,156,"[1, 2]",white,"['00C', '25L']","['C', 'D']",,"{'muct_id': '280', 'lighting': 'u', 'race_guess': 'w', 'gender_guess': 'm', 'quality': '3', 'quality_eyes': '3', 'quality_mouth': '3', 'quality_ears': '3', 'quality_hair': '3', 'quality_neck': '3', 'facial_hair': '0.0', 'notes': None, 'race_common': 'white', 'gender_common': 'man'}","{'muct_id': '258', 'lighting': 'u', 'race_guess': 'w', 'gender_guess': 'm', 'quality': '2', 'quality_eyes': '3', 'quality_mouth': '3', 'quality_ears': '3', 'quality_hair': '2', 'quality_neck': '3', 'facial_hair': '0.0', 'notes': 'hair', 'race_common': 'white', 'gender_common': 'man'}",,,,,,,,,,,,,,,,,,,,,,,,,,,,,,,,,,,,,,,,,,,,,,6267206b1871ea3358531c84,6266e20a583caa8581feb914,6266d12bc803262aae0e8de2,,,,,,,,,,,,,,,,,,,,
9957,6267217206b19921fe99d781,Chrome,1.0,main_task,1.0,1.0,chris,"4/25/2022, 4:32:18 PM",ubkhnf1vvemlu6jd18rk,0.0-10.0,pilot_prolific_test_typicals,37,woman,103,0.0,black,50R,U,7803.0,"['../stimuli/version1_gray_lm/id103_50R_U.png', '../stimuli/version1_gray_lm/id027_00C_C.png', '../stimuli/version1_gray_lm/id027_25L_D.png']",134173.0,0.0,15.0,4.0,encoding,woman,027,"[1, 2]",black,"['00C', '25L']","['C', 'D']",,"{'muct_id': '285', 'lighting': 'v', 'race_guess': 'b', 'gender_guess': 'w', 'quality': '3', 'quality_eyes': '3', 'quality_mouth': '3', 'quality_ears': '3', 'quality_hair': '3', 'quality_neck': '3', 'facial_hair': '0.0', 'notes': 'earrings', 'race_common': 'black', 'gender_common': 'woman'}","{'muct_id': '37', 'lighting': 'q', 'race_guess': 'b', 'gender_guess': 'w', 'quality': '3', 'quality_eyes': '3', 'quality_mouth': '3', 'quality_ears': '3', 'quality_hair': '3', 'quality_neck': '3', 'facial_hair': '0.0', 'notes': 'earrings', 'race_common': 'black', 'gender_common': 'woman'}",,,,,,,,,,,,,,,,,,,,,,,,,,,,,,,,,,,,,,,,,,,,,,6267206b1871ea3358531c84,6266e20a583caa8581feb914,6266d12bc803262aae0e8de2,,,,,,,,,,,,,,,,,,,,
9958,6267217806b19921fe99d782,Chrome,3.0,main_task,1.0,3.0,chris,"4/25/2022, 4:32:23 PM",ubkhnf1vvemlu6jd18rk,0.0-12.0,pilot_prolific_test_typicals,40,woman,111,2.0,black,50R,U,4295.0,"['../stimuli/version1_gray_lm/id059_25L_D.png', '../stimuli/version1_gray_lm/id059_00C_C.png', '../stimuli/version1_gray_lm/id111_50R_U.png']",139458.0,0.0,17.0,5.0,encoding,woman,059,"[0, 1]",black,"['25L', '00C']","['D', 'C']",,"{'muct_id': '405', 'lighting': 'w', 'race_guess': 'b', 'gender_guess': 'w', 'quality': '3', 'quality_eyes': '3', 'quality_mouth': '3', 'quality_ears': '3', 'quality_hair': '3', 'quality_neck': '3', 'facial_hair': '0.0', 'notes': 'hair earrings', 'race_common': 'black', 'gender_common': 'woman'}","{'muct_id': '86', 'lighting': 'q', 'race_guess': 'b', 'gender_guess': 'w', 'quality': '3', 'quality_eyes': '3', 'quality_mouth': '3', 'quality_ears': '3', 'quality_hair': '3', 'quality_neck': '3', 'facial_hair': '0.0', 'notes': 'earrings', 'race_common': 'black', 'gender_common': 'woman'}",,,,,,,,,,,,,,,,,,,,,,,,,,,,,,,,,,,,,,,,,,,,,,6267206b1871ea3358531c84,6266e20a583caa8581feb914,6266d12bc803262aae0e8de2,,,,,,,,,,,,,,,,,,,,
9959,6267217f06b19921fe99d783,Chrome,2.0,main_task,1.0,2.0,chris,"4/25/2022, 4:32:31 PM",ubkhnf1vvemlu6jd18rk,0.0-14.0,pilot_prolific_test_typicals,39,man,112,1.0,black,50L,U,6215.0,"['../stimuli/version1_gray_lm/id021_00C_C.png', '../stimuli/version1_gray_lm/id112_50L_U.png', '../stimuli/version1_gray_lm/id021_25R_D.png']",147011.0,0.0,19.0,6.0,encoding,man,021,"[0, 2]",black,"['00C', '25R']","['C', 'D']",,"{'muct_id': '406', 'lighting': 'w', 'race_guess': 'b', 'gender_guess': 'm', 'quality': '3', 'quality_eyes': '3', 'quality_mouth': '3', 'quality_ears': '3', 'quality_hair': '3', 'quality_neck': '3', 'facial_hair': '1.0', 'notes': None, 'race_common': 'black', 'gender_common': 'man'}","{'muct_id': '25', 'lighting': 'r', 'race_guess': 'b', 'gender_guess': 'm', 'quality': '3', 'quality_eyes': '3', 'quality_mouth': '3', 'quality_ears': '3', 'quality_hair': '3', 'quality_neck': '3', 'facial_hair': '2.0', 'notes': None, 'race_common': 'black', 'gender_common': 'man'}",,,,,,,,,,,,,,,,,,,,,,,,,,,,,,,,,,,,,,,,,,,,,,6267206b1871ea3358531c84,6266e20a583caa8581feb914,6266d12bc803262aae0e8de2,,,,,,,,,,,,,,,,,,,,
9960,6267218506b19921fe99d784,Chrome,3.0,main_task,1.0,3.0,chris,"4/25/2022, 4:32:37 PM",ubkhnf1vvemlu6jd18rk,0.0-16.0,pilot_prolific_test_typicals,40,woman,102,2.0,white,50L,D,4664.0,"['../stimuli/version1_gray_lm/id088_50R_C.png', '../stimuli/version1_gray_lm/id088_00C_U.png', '../stimuli/version1_gray_lm/id102_50L_D.png']",152701.0,0.0,21.0,7.0,encoding,woman,088,"[0, 1]",white,"['50R', '00C']","['C', 'U']",,"{'muct_id': '283', 'lighting': 't', 'race_guess': 'i', 'gender_guess': 'w', 'quality': '3', 'quality_eyes': '3', 'quality_mouth': '3', 'quality_ears': '3', 'quality_hair': '3', 'quality_neck': '3', 'facial_hair': '0.0', 'notes': 'pottu', 'race_common': 'white', 'gender_common': 'woman'}","{'muct_id': '252', 'lighting': 't', 'race_guess': 'w', 'gender_guess': 'w', 'quality': '3', 'quality_eyes': '3', 'quality_mouth': '3', 'quality_ears': '3', 'quality_hair': '3', 'quality_neck': '3', 'facial_hair': '0.0', 'notes': 'hair', 'race_common': 'white', 'gender_common': 'woman'}",,,,,,,,,,,,,,,,,,,,,,,,,,,,,,,,,,,,,,,,,,,,,,6267206b1871ea3358531c84,6266e20a583caa8581feb914,6266d12bc803262aae0e8de2,,,,,,,,,,,,,,,,,,,,
9961,6267218c06b19921fe99d785,Chrome,3.0,main_task,1.0,3.0,chris,"4/25/2022, 4:32:43 PM",ubkhnf1vvemlu6jd18rk,0.0-18.0,pilot_prolific_test_typicals,40,man,104,2.0,white,25L,U,5140.0,"['../stimuli/version1_gray_lm/id002_25R_D.png', '../stimuli/version1_gray_lm/id002_00C_C.png', '../stimuli/version1_gray_lm/id104_25L_U.png']",159556.0,0.0,23.0,8.0,encoding,man,002,"[0, 1]",white,"['25R', '00C']","['D', 'C']",,"{'muct_id': '287', 'lighting': 't', 'race_guess': 'w', 'gender_guess': 'm', 'quality': '3', 'quality_eyes': '3', 'quality_mouth': '3', 'quality_ears': '3', 'quality_hair': '3', 'quality_neck': '3', 'facial_hair': '2.0', 'notes': None, 'race_common': 'white', 'gender_common': 'man'}","{'muct_id': '2', 'lighting': 'r', 'race_guess': 'w', 'gender_guess': 'm', 'quality': '3', 'quality_eyes': '3', 'quality_mouth': '3', 'quality_ears': '3', 'quality_hair': '3', 'quality_neck': '3', 'facial_hair': '2.0', 'notes': 'eyes', 'race_common': 'white', 'gender_common': 'man'}",,,,,,,,,,,,,,,,,,,,,,,,,,,,,,,,,,,,,,,,,,,,,,6267206b1871ea3358531c84,6266e20a583caa8581feb914,6266d12bc803262aae0e8de2,,,,,,,,,,,,,,,,,,,,
9962,6267219706b19921fe99d786,Chrome,,main_task,0.0,1.0,chris,"4/25/2022, 4:32:55 PM",ubkhnf1vvemlu6jd18rk,0.0-20.0,pilot_prolific_test_typicals,,woman,114,0.0,white,50L,D,0.0,"['../stimuli/version1_gray_lm/id114_50L_D.png', '../stimuli/version1_gray_lm/id054_00C_C.png', '../stimuli/version1_gray_lm/id054_25R_U.png']",170744.0,1.0,25.0,9.0,encoding,woman,054,"[1, 2]",white,"['00C', '25R']","['C', 'U']",,"{'muct_id': '410', 'lighting': 'w', 'race_guess': 'w', 'gender_guess': 'w', 'quality': '3', 'quality_eyes': '3', 'quality_mouth': '3', 'quality_ears': '3', 'quality_hair': '3', 'quality_neck': '3', 'facial_hair': '0.0', 'notes': 'makeup mouth', 'race_common': 'white', 'gender_common': 'woman'}","{'muct_id': '80', 'lighting': 's', 'race_guess': 'b', 'gender_guess': 'w', 'quality': '3', 'quality_eyes': '3', 'quality_mouth': '3', 'quality_ears': '3', 'quality_hair': '3', 'quality_neck': '3', 'facial_hair': '0.0', 'notes': 'earrings', 'race_common': 'white', 'gender_common': 'woman'}",,,,,,,,,,,,,,,,,,,,,,,,,,,,,,,,,,,,,,,,,,,,,,6267206b1871ea3358531c84,6266e20a583caa8581feb914,6266d12bc803262aae0e8de2,,,,,,,,,,,,,,,,,,,,
9963,6267219c06b19921fe99d787,Chrome,1.0,main_task,1.0,1.0,chris,"4/25/2022, 4:32:59 PM",ubkhnf1vvemlu6jd18rk,0.0-22.0,pilot_prolific_test_typicals,37,man,117,0.0,black,25L,D,3078.0,"['../stimuli/version1_gray_lm/id117_25L_D.png', '../stimuli/version1_gray_lm/id091_00C_U.png', '../stimuli/version1_gray_lm/id091_25R_C.png']",175485.0,0.0,27.0,10.0,encoding,man,091,"[1, 2]",black,"['00C', '25R']","['U', 'C']",,"{'muct_id': '417', 'lighting': 'w', 'race_guess': 'b', 'gender_guess': 'm', 'quality': '3', 'quality_eyes': '3', 'quality_mouth': '3', 'quality_ears': '3', 'quality_hair': '3', 'quality_neck': '3', 'facial_hair': '1.0', 'notes': 'mouth', 'race_common': 'black', 'gender_common': 'man'}","{'muct_id': '260', 'lighting': 't', 'race_guess': 'b', 'gender_guess': 'm', 'quality': '3', 'quality_eyes': '3', 'quality_mouth': '3', 'quality_ears': '3', 'quality_hair': '3', 'quality_neck': '3', 'facial_hair': '4.0', 'notes': 'beard', 'race_common': 'black', 'gender_common': 'man'}",,,,,,,,,,,,,,,,,,,,,,,,,,,,,,,,,,,,,,,,,,,,,,6267206b1871ea3358531c84,6266e20a583caa8581feb914,6266d12bc803262aae0e8de2,,,,,,,,,,,,,,,,,,,,
9964,626721a006b19921fe99d788,Chrome,1.0,main_task,1.0,1.0,chris,"4/25/2022, 4:33:04 PM",ubkhnf1vvemlu6jd18rk,0.0-24.0,pilot_prolific_test_typicals,37,man,113,0.0,black,00C,D,3315.0,"['../stimuli/version1_gray_lm/id113_00C_D.png', '../stimuli/version1_gray_lm/id064_25L_U.png', '../stimuli/version1_gray_lm/id064_50R_C.png']",179656.0,0.0,29.0,11.0,encoding,man,064,"[1, 2]",black,"['25L', '50R']","['U', 'C']",,"{'muct_id': '407', 'lighting': 'x', 'race_guess': 'u', 'gender_guess': 'm', 'quality': '3', 'quality_eyes': '3', 'quality_mouth': '3', 'quality_ears': '3', 'quality_hair': '3', 'quality_neck': '3', 'facial_hair': '3.0', 'notes': 'beard', 'race_common': 'black', 'gender_common': 'man'}","{'muct_id': '204', 'lighting': 't', 'race_guess': 'b', 'gender_guess': 'm', 'quality': '3', 'quality_eyes': '3', 'quality_mouth': '3', 'quality_ears': '3', 'quality_hair': '3', 'quality_neck': '3', 'facial_hair': '1.0', 'notes': None, 'race_common': 'black', 'gender_common': 'man'}",,,,,,,,,,,,,,,,,,,,,,,,,,,,,,,,,,,,,,,,,,,,,,6267206b1871ea3358531c84,6266e20a583caa8581feb914,6266d12bc803262aae0e8de2,,,,,,,,,,,,,,,,,,,,
9965,626721a406b19921fe99d789,Chrome,2.0,main_task,1.0,2.0,chris,"4/25/2022, 4:33:07 PM",ubkhnf1vvemlu6jd18rk,0.0-26.0,pilot_prolific_test_typicals,39,woman,109,1.0,white,25L,U,3012.0,"['../stimuli/version1_gray_lm/id029_25R_D.png', '../stimuli/version1_gray_lm/id109_25L_U.png', '../stimuli/version1_gray_lm/id029_00C_C.png']",183444.0,0.0,31.0,12.0,encoding,woman,029,"[0, 2]",white,"['25R', '00C']","['D', 'C']",,"{'muct_id': '401', 'lighting': 'w', 'race_guess': 'w', 'gender_guess': 'w', 'quality': '3', 'quality_eyes': '3', 'quality_mouth': '3', 'quality_ears': '3', 'quality_hair': '3', 'quality_neck': '3', 'facial_hair': '0.0', 'notes': 'mouth', 'race_common': 'white', 'gender_common': 'woman'}","{'muct_id': '39', 'lighting': 'r', 'race_guess': 'w', 'gender_guess': 'w', 'quality': '3', 'quality_eyes': '3', 'quality_mouth': '3', 'quality_ears': '3', 'quality_hair': '3', 'quality_neck': '3', 'facial_hair': '0.0', 'notes': 'earrings hair', 'race_common': 'white', 'gender_common': 'woman'}",,,,,,,,,,,,,,,,,,,,,,,,,,,,,,,,,,,,,,,,,,,,,,6267206b1871ea3358531c84,6266e20a583caa8581feb914,6266d12bc803262aae0e8de2,,,,,,,,,,,,,,,,,,,,
9966,626721a606b19921fe99d78a,Chrome,2.0,main_task,1.0,2.0,chris,"4/25/2022, 4:33:10 PM",ubkhnf1vvemlu6jd18rk,0.0-28.0,pilot_prolific_test_typicals,39,man,115,1.0,white,00C,U,1777.0,"['../stimuli/version1_gray_lm/id092_50L_C.png', '../stimuli/version1_gray_lm/id115_00C_U.png', '../stimuli/version1_gray_lm/id092_50R_D.png']",186048.0,0.0,33.0,13.0,encoding,man,092,"[0, 2]",white,"['50L', '50R']","['C', 'D']",,"{'muct_id': '412', 'lighting': 'x', 'race_guess': 'w', 'gender_guess': 'm', 'quality': '3', 'quality_eyes': '3', 'quality_mouth': '3', 'quality_ears': '3', 'quality_hair': '3', 'quality_neck': '3', 'facial_hair': '0.0', 'notes': None, 'race_common': 'white', 'gender_common': 'man'}","{'muct_id': '261', 'lighting': 'v', 'race_guess': 'w', 'gender_guess': 'm', 'quality': '2', 'quality_eyes': '2', 'quality_mouth': '3', 'quality_ears': '3', 'quality_hair': '3', 'quality_neck': '3', 'facial_hair': '0.0', 'notes': None, 'race_common': 'white', 'gender_common': 'man'}",,,,,,,,,,,,,,,,,,,,,,,,,,,,,,,,,,,,,,,,,,,,,,6267206b1871ea3358531c84,6266e20a583caa8581feb914,6266d12bc803262aae0e8de2,,,,,,,,,,,,,,,,,,,,
9967,626721aa06b19921fe99d78b,Chrome,2.0,main_task,1.0,2.0,chris,"4/25/2022, 4:33:14 PM",ubkhnf1vvemlu6jd18rk,0.0-30.0,pilot_prolific_test_typicals,39,man,118,1.0,black,50L,C,3322.0,"['../stimuli/version1_gray_lm/id056_00C_U.png', '../stimuli/version1_gray_lm/id118_50L_C.png', '../stimuli/version1_gray_lm/id056_25R_D.png']",190209.0,0.0,35.0,14.0,encoding,man,056,"[0, 2]",black,"['00C', '25R']","['U', 'D']",,"{'muct_id': '419', 'lighting': 'x', 'race_guess': 'b', 'gender_guess': 'm', 'quality': '3', 'quality_eyes': '3', 'quality_mouth': '3', 'quality_ears': '3', 'quality_hair': '3', 'quality_neck': '3', 'facial_hair': '1.0', 'notes': None, 'race_common': 'black', 'gender_common': 'man'}","{'muct_id': '82', 'lighting': 'q', 'race_guess': 'b', 'gender_guess': 'm', 'quality': '3', 'quality_eyes': '3', 'quality_mouth': '3', 'quality_ears': '3', 'quality_hair': '3', 'quality_neck': '3', 'facial_hair': '1.0', 'notes': None, 'race_common': 'black', 'gender_common': 'man'}",,,,,,,,,,,,,,,,,,,,,,,,,,,,,,,,,,,,,,,,,,,,,,6267206b1871ea3358531c84,6266e20a583caa8581feb914,6266d12bc803262aae0e8de2,,,,,,,,,,,,,,,,,,,,
9968,626721ae06b19921fe99d78c,Chrome,2.0,main_task,1.0,2.0,chris,"4/25/2022, 4:33:18 PM",ubkhnf1vvemlu6jd18rk,0.0-32.0,pilot_prolific_test_typicals,39,man,116,1.0,white,50R,U,2767.0,"['../stimuli/version1_gray_lm/id094_25L_D.png', '../stimuli/version1_gray_lm/id116_50R_U.png', '../stimuli/version1_gray_lm/id094_00C_C.png']",193814.0,0.0,37.0,15.0,encoding,man,094,"[0, 2]",white,"['25L', '00C']","['D', 'C']",,"{'muct_id': '414', 'lighting': 'w', 'race_guess': 'w', 'gender_guess': 'm', 'quality': '3', 'quality_eyes': '3', 'quality_mouth': '3', 'quality_ears': '3', 'quality_hair': '3', 'quality_neck': '3', 'facial_hair': '0.0', 'notes': None, 'race_common': 'white', 'gender_common': 'man'}","{'muct_id': '264', 'lighting': 't', 'race_guess': 'w', 'gender_guess': 'm', 'quality': '3', 'quality_eyes': '3', 'quality_mouth': '3', 'quality_ears': '3', 'quality_hair': '3', 'quality_neck': '3', 'facial_hair': '0.0', 'notes': None, 'race_common': 'white', 'gender_common': 'man'}",,,,,,,,,,,,,,,,,,,,,,,,,,,,,,,,,,,,,,,,,,,,,,6267206b1871ea3358531c84,6266e20a583caa8581feb914,6266d12bc803262aae0e8de2,,,,,,,,,,,,,,,,,,,,
9969,626721b406b19921fe99d78d,Chrome,1.0,main_task,1.0,1.0,chris,"4/25/2022, 4:33:24 PM",ubkhnf1vvemlu6jd18rk,0.0-34.0,pilot_prolific_test_typicals,37,man,119,0.0,black,25L,D,5304.0,"['../stimuli/version1_gray_lm/id119_25L_D.png', '../stimuli/version1_gray_lm/id036_50R_C.png', '../stimuli/version1_gray_lm/id036_00C_U.png']",200142.0,0.0,39.0,16.0,encoding,man,036,"[1, 2]",black,"['50R', '00C']","['C', 'U']",,"{'muct_id': '420', 'lighting': 'w', 'race_guess': 'b', 'gender_guess': 'm', 'quality': '3', 'quality_eyes': '3', 'quality_mouth': '3', 'quality_ears': '3', 'quality_hair': '3', 'quality_neck': '3', 'facial_hair': '0.0', 'notes': None, 'race_common': 'black', 'gender_common': 'man'}","{'muct_id': '47', 'lighting': 'q', 'race_guess': 'b', 'gender_guess': 'u', 'quality': '3', 'quality_eyes': '3', 'quality_mouth': '3', 'quality_ears': '3', 'quality_hair': '3', 'quality_neck': '3', 'facial_hair': '0.0', 'notes': None, 'race_common': 'black', 'gender_common': 'man'}",,,,,,,,,,,,,,,,,,,,,,,,,,,,,,,,,,,,,,,,,,,,,,6267206b1871ea3358531c84,6266e20a583caa8581feb914,6266d12bc803262aae0e8de2,,,,,,,,,,,,,,,,,,,,
9970,626721b906b19921fe99d78e,Chrome,2.0,main_task,1.0,2.0,chris,"4/25/2022, 4:33:29 PM",ubkhnf1vvemlu6jd18rk,0.0-36.0,pilot_prolific_test_typicals,39,woman,120,1.0,black,25L,D,4107.0,"['../stimuli/version1_gray_lm/id016_25R_U.png', '../stimuli/version1_gray_lm/id120_25L_D.png', '../stimuli/version1_gray_lm/id016_00C_C.png']",205023.0,0.0,41.0,17.0,encoding,woman,016,"[0, 2]",black,"['25R', '00C']","['U', 'C']",,"{'muct_id': '421', 'lighting': 'x', 'race_guess': 'b', 'gender_guess': 'w', 'quality': '3', 'quality_eyes': '3', 'quality_mouth': '3', 'quality_ears': '3', 'quality_hair': '3', 'quality_neck': '3', 'facial_hair': '0.0', 'notes': None, 'race_common': 'black', 'gender_common': 'woman'}","{'muct_id': '18', 'lighting': 'q', 'race_guess': 'b', 'gender_guess': 'w', 'quality': '3', 'quality_eyes': '3', 'quality_mouth': '3', 'quality_ears': '3', 'quality_hair': '3', 'quality_neck': '3', 'facial_hair': '0.0', 'notes': 'earrings', 'race_common': 'black', 'gender_common': 'woman'}",,,,,,,,,,,,,,,,,,,,,,,,,,,,,,,,,,,,,,,,,,,,,,6267206b1871ea3358531c84,6266e20a583caa8581feb914,6266d12bc803262aae0e8de2,,,,,,,,,,,,,,,,,,,,
9971,626721bd06b19921fe99d78f,Chrome,1.0,main_task,1.0,1.0,chris,"4/25/2022, 4:33:33 PM",ubkhnf1vvemlu6jd18rk,0.0-38.0,pilot_prolific_test_typicals,37,man,121,0.0,black,50R,U,2790.0,"['../stimuli/version1_gray_lm/id121_50R_U.png', '../stimuli/version1_gray_lm/id081_00C_C.png', '../stimuli/version1_gray_lm/id081_50L_D.png']",208872.0,0.0,43.0,18.0,encoding,man,081,"[1, 2]",black,"['00C', '50L']","['C', 'D']",,"{'muct_id': '423', 'lighting': 'w', 'race_guess': 'b', 'gender_guess': 'm', 'quality': '3', 'quality_eyes': '3', 'quality_mouth': '3', 'quality_ears': '3', 'quality_hair': '3', 'quality_neck': '3', 'facial_hair': '1.0', 'notes': None, 'race_common': 'black', 'gender_common': 'man'}","{'muct_id': '241', 'lighting': 't', 'race_guess': 'u', 'gender_guess': 'm', 'quality': '3', 'quality_eyes': '3', 'quality_mouth': '3', 'quality_ears': '3', 'quality_hair': '3', 'quality_neck': '3', 'facial_hair': '1.0', 'notes': 'mouth', 'race_common': 'black', 'gender_common': 'man'}",,,,,,,,,,,,,,,,,,,,,,,,,,,,,,,,,,,,,,,,,,,,,,6267206b1871ea3358531c84,6266e20a583caa8581feb914,6266d12bc803262aae0e8de2,,,,,,,,,,,,,,,,,,,,
9972,626721c106b19921fe99d790,Chrome,2.0,main_task,1.0,2.0,chris,"4/25/2022, 4:33:37 PM",ubkhnf1vvemlu6jd18rk,0.0-40.0,pilot_prolific_test_typicals,39,woman,123,1.0,white,25R,U,3368.0,"['../stimuli/version1_gray_lm/id013_50L_C.png', '../stimuli/version1_gray_lm/id123_25R_U.png', '../stimuli/version1_gray_lm/id013_00C_D.png']",213221.0,0.0,45.0,19.0,encoding,woman,013,"[0, 2]",white,"['50L', '00C']","['C', 'D']",,"{'muct_id': '76', 'lighting': 'q', 'race_guess': 'w', 'gender_guess': 'w', 'quality': '2', 'quality_eyes': '2', 'quality_mouth': '3', 'quality_ears': '2', 'quality_hair': '2', 'quality_neck': '3', 'facial_hair': '0.0', 'notes': 'hair', 'race_common': 'white', 'gender_common': 'woman'}","{'muct_id': '14', 'lighting': 'q', 'race_guess': 'w', 'gender_guess': 'w', 'quality': '3', 'quality_eyes': '3', 'quality_mouth': '3', 'quality_ears': '3', 'quality_hair': '3', 'quality_neck': '3', 'facial_hair': '0.0', 'notes': None, 'race_common': 'white', 'gender_common': 'woman'}",,,,,,,,,,,,,,,,,,,,,,,,,,,,,,,,,,,,,,,,,,,,,,6267206b1871ea3358531c84,6266e20a583caa8581feb914,6266d12bc803262aae0e8de2,,,,,,,,,,,,,,,,,,,,
9973,626721c706b19921fe99d791,Chrome,2.0,main_task,1.0,2.0,chris,"4/25/2022, 4:33:43 PM",ubkhnf1vvemlu6jd18rk,0.0-42.0,pilot_prolific_test_typicals,39,woman,125,1.0,white,00C,C,4931.0,"['../stimuli/version1_gray_lm/id051_25L_D.png', '../stimuli/version1_gray_lm/id125_00C_C.png', '../stimuli/version1_gray_lm/id051_25R_U.png']",219202.0,0.0,47.0,20.0,encoding,woman,051,"[0, 2]",white,"['25L', '25R']","['D', 'U']",,"{'muct_id': '433', 'lighting': 'x', 'race_guess': 'w', 'gender_guess': 'w', 'quality': '3', 'quality_eyes': '3', 'quality_mouth': '3', 'quality_ears': '3', 'quality_hair': '3', 'quality_neck': '3', 'facial_hair': '0.0', 'notes': None, 'race_common': 'white', 'gender_common': 'woman'}","{'muct_id': '74', 'lighting': 'q', 'race_guess': 'w', 'gender_guess': 'w', 'quality': '3', 'quality_eyes': '3', 'quality_mouth': '3', 'quality_ears': '3', 'quality_hair': '3', 'quality_neck': '3', 'facial_hair': '0.0', 'notes': None, 'race_common': 'white', 'gender_common': 'woman'}",,,,,,,,,,,,,,,,,,,,,,,,,,,,,,,,,,,,,,,,,,,,,,6267206b1871ea3358531c84,6266e20a583caa8581feb914,6266d12bc803262aae0e8de2,,,,,,,,,,,,,,,,,,,,
9974,626721ca06b19921fe99d792,Chrome,2.0,main_task,1.0,2.0,chris,"4/25/2022, 4:33:46 PM",ubkhnf1vvemlu6jd18rk,0.0-44.0,pilot_prolific_test_typicals,39,woman,141,1.0,white,50R,U,1994.0,"['../stimuli/version1_gray_lm/id003_25L_C.png', '../stimuli/version1_gray_lm/id141_50R_U.png', '../stimuli/version1_gray_lm/id003_00C_D.png']",222008.0,0.0,49.0,21.0,encoding,woman,003,"[0, 2]",white,"['25L', '00C']","['C', 'D']",,"{'muct_id': '77', 'lighting': 's', 'race_guess': 'w', 'gender_guess': 'w', 'quality': '3', 'quality_eyes': '3', 'quality_mouth': '3', 'quality_ears': '3', 'quality_hair': '3', 'quality_neck': '3', 'facial_hair': '0.0', 'notes': None, 'race_common': 'white', 'gender_common': 'woman'}","{'muct_id': '3', 'lighting': 's', 'race_guess': 'i', 'gender_guess': 'w', 'quality': '2', 'quality_eyes': '3', 'quality_mouth': '3', 'quality_ears': '3', 'quality_hair': '2', 'quality_neck': '3', 'facial_hair': '0.0', 'notes': 'hair', 'race_common': 'white', 'gender_common': 'woman'}",,,,,,,,,,,,,,,,,,,,,,,,,,,,,,,,,,,,,,,,,,,,,,6267206b1871ea3358531c84,6266e20a583caa8581feb914,6266d12bc803262aae0e8de2,,,,,,,,,,,,,,,,,,,,
9975,626721d006b19921fe99d793,Chrome,2.0,main_task,1.0,2.0,chris,"4/25/2022, 4:33:52 PM",ubkhnf1vvemlu6jd18rk,0.0-46.0,pilot_prolific_test_typicals,39,man,124,1.0,black,25R,C,4629.0,"['../stimuli/version1_gray_lm/id083_25L_U.png', '../stimuli/version1_gray_lm/id124_25R_C.png', '../stimuli/version1_gray_lm/id083_00C_D.png']",227893.0,0.0,51.0,22.0,encoding,man,083,"[0, 2]",black,"['25L', '00C']","['U', 'D']",,"{'muct_id': '431', 'lighting': 'x', 'race_guess': 'b', 'gender_guess': 'u', 'quality': '3', 'quality_eyes': '3', 'quality_mouth': '3', 'quality_ears': '3', 'quality_hair': '3', 'quality_neck': '3', 'facial_hair': '0.0', 'notes': 'mouth', 'race_common': 'black', 'gender_common': 'man'}","{'muct_id': '243', 'lighting': 'v', 'race_guess': 'b', 'gender_guess': 'm', 'quality': '3', 'quality_eyes': '3', 'quality_mouth': '3', 'quality_ears': '3', 'quality_hair': '3', 'quality_neck': '3', 'facial_hair': '0.0', 'notes': None, 'race_common': 'black', 'gender_common': 'man'}",,,,,,,,,,,,,,,,,,,,,,,,,,,,,,,,,,,,,,,,,,,,,,6267206b1871ea3358531c84,6266e20a583caa8581feb914,6266d12bc803262aae0e8de2,,,,,,,,,,,,,,,,,,,,
9976,626721d906b19921fe99d794,Chrome,2.0,main_task,1.0,2.0,chris,"4/25/2022, 4:34:00 PM",ubkhnf1vvemlu6jd18rk,0.0-48.0,pilot_prolific_test_typicals,39,man,122,1.0,black,00C,C,7753.0,"['../stimuli/version1_gray_lm/id058_50R_D.png', '../stimuli/version1_gray_lm/id122_00C_C.png', '../stimuli/version1_gray_lm/id058_50L_U.png']",236516.0,0.0,53.0,23.0,encoding,man,058,"[0, 2]",black,"['50R', '50L']","['D', 'U']",,"{'muct_id': '425', 'lighting': 'x', 'race_guess': 'b', 'gender_guess': 'm', 'quality': '3', 'quality_eyes': '3', 'quality_mouth': '3', 'quality_ears': '3', 'quality_hair': '3', 'quality_neck': '3', 'facial_hair': '2.0', 'notes': None, 'race_common': 'black', 'gender_common': 'man'}","{'muct_id': '84', 'lighting': 'q', 'race_guess': 'b', 'gender_guess': 'm', 'quality': '2', 'quality_eyes': '2', 'quality_mouth': '3', 'quality_ears': '3', 'quality_hair': '3', 'quality_neck': '3', 'facial_hair': '3.0', 'notes': 'beard', 'race_common': 'black', 'gender_common': 'man'}",,,,,,,,,,,,,,,,,,,,,,,,,,,,,,,,,,,,,,,,,,,,,,6267206b1871ea3358531c84,6266e20a583caa8581feb914,6266d12bc803262aae0e8de2,,,,,,,,,,,,,,,,,,,,
9977,626721dd06b19921fe99d795,Chrome,3.0,main_task,0.0,1.0,chris,"4/25/2022, 4:34:05 PM",ubkhnf1vvemlu6jd18rk,0.0-50.0,pilot_prolific_test_typicals,40,man,143,0.0,white,50R,C,3571.0,"['../stimuli/version1_gray_lm/id143_50R_C.png', '../stimuli/version1_gray_lm/id012_50L_U.png', '../stimuli/version1_gray_lm/id012_00C_D.png']",240923.0,0.0,55.0,24.0,encoding,man,012,"[1, 2]",white,"['50L', '00C']","['U', 'D']",,"{'muct_id': '90', 'lighting': 'q', 'race_guess': 'u', 'gender_guess': 'm', 'quality': '2', 'quality_eyes': '3', 'quality_mouth': '3', 'quality_ears': '2', 'quality_hair': '3', 'quality_neck': '3', 'facial_hair': '4.0', 'notes': 'beard', 'race_common': 'white', 'gender_common': 'man'}","{'muct_id': '12', 'lighting': 'q', 'race_guess': 'i', 'gender_guess': 'm', 'quality': '3', 'quality_eyes': '3', 'quality_mouth': '3', 'quality_ears': '3', 'quality_hair': '3', 'quality_neck': '3', 'facial_hair': '2.0', 'notes': None, 'race_common': 'white', 'gender_common': 'man'}",,,,,,,,,,,,,,,,,,,,,,,,,,,,,,,,,,,,,,,,,,,,,,6267206b1871ea3358531c84,6266e20a583caa8581feb914,6266d12bc803262aae0e8de2,,,,,,,,,,,,,,,,,,,,
9978,626721e106b19921fe99d796,Chrome,1.0,main_task,1.0,1.0,chris,"4/25/2022, 4:34:09 PM",ubkhnf1vvemlu6jd18rk,0.0-52.0,pilot_prolific_test_typicals,37,man,145,0.0,white,00C,U,3151.0,"['../stimuli/version1_gray_lm/id145_00C_U.png', '../stimuli/version1_gray_lm/id041_50R_D.png', '../stimuli/version1_gray_lm/id041_25L_C.png']",245060.0,0.0,57.0,25.0,encoding,man,041,"[1, 2]",white,"['50R', '25L']","['D', 'C']",,"{'muct_id': '230', 'lighting': 'u', 'race_guess': 'w', 'gender_guess': 'm', 'quality': '3', 'quality_eyes': '3', 'quality_mouth': '3', 'quality_ears': '3', 'quality_hair': '3', 'quality_neck': '3', 'facial_hair': '0.0', 'notes': 'hair', 'race_common': 'white', 'gender_common': 'man'}","{'muct_id': '56', 'lighting': 'q', 'race_guess': 'w', 'gender_guess': 'm', 'quality': '3', 'quality_eyes': '3', 'quality_mouth': '3', 'quality_ears': '3', 'quality_hair': '3', 'quality_neck': '3', 'facial_hair': '0.0', 'notes': None, 'race_common': 'white', 'gender_common': 'man'}",,,,,,,,,,,,,,,,,,,,,,,,,,,,,,,,,,,,,,,,,,,,,,6267206b1871ea3358531c84,6266e20a583caa8581feb914,6266d12bc803262aae0e8de2,,,,,,,,,,,,,,,,,,,,
9979,626721e606b19921fe99d797,Chrome,1.0,main_task,1.0,1.0,chris,"4/25/2022, 4:34:14 PM",ubkhnf1vvemlu6jd18rk,0.0-54.0,pilot_prolific_test_typicals,37,woman,126,0.0,black,00C,U,4076.0,"['../stimuli/version1_gray_lm/id126_00C_U.png', '../stimuli/version1_gray_lm/id022_25R_C.png', '../stimuli/version1_gray_lm/id022_25L_D.png']",250193.0,0.0,59.0,26.0,encoding,woman,022,"[1, 2]",black,"['25R', '25L']","['C', 'D']",,"{'muct_id': '434', 'lighting': 'w', 'race_guess': 'b', 'gender_guess': 'w', 'quality': '3', 'quality_eyes': '3', 'quality_mouth': '3', 'quality_ears': '3', 'quality_hair': '3', 'quality_neck': '3', 'facial_hair': '0.0', 'notes': 'earrings', 'race_common': 'black', 'gender_common': 'woman'}","{'muct_id': '26', 'lighting': 'q', 'race_guess': 'b', 'gender_guess': 'w', 'quality': '3', 'quality_eyes': '3', 'quality_mouth': '3', 'quality_ears': '3', 'quality_hair': '3', 'quality_neck': '3', 'facial_hair': '0.0', 'notes': 'earrings', 'race_common': 'black', 'gender_common': 'woman'}",,,,,,,,,,,,,,,,,,,,,,,,,,,,,,,,,,,,,,,,,,,,,,6267206b1871ea3358531c84,6266e20a583caa8581feb914,6266d12bc803262aae0e8de2,,,,,,,,,,,,,,,,,,,,
9980,626721eb06b19921fe99d798,Chrome,3.0,main_task,1.0,3.0,chris,"4/25/2022, 4:34:19 PM",ubkhnf1vvemlu6jd18rk,0.0-56.0,pilot_prolific_test_typicals,40,man,146,2.0,white,50L,U,3757.0,"['../stimuli/version1_gray_lm/id047_25R_D.png', '../stimuli/version1_gray_lm/id047_00C_C.png', '../stimuli/version1_gray_lm/id146_50L_U.png']",254858.0,0.0,61.0,27.0,encoding,man,047,"[0, 1]",white,"['25R', '00C']","['D', 'C']",,"{'muct_id': '254', 'lighting': 'v', 'race_guess': 'w', 'gender_guess': 'm', 'quality': '2', 'quality_eyes': '2', 'quality_mouth': '3', 'quality_ears': '3', 'quality_hair': '2', 'quality_neck': '3', 'facial_hair': '0.0', 'notes': 'hair', 'race_common': 'white', 'gender_common': 'man'}","{'muct_id': '64', 'lighting': 'q', 'race_guess': 'w', 'gender_guess': 'm', 'quality': '3', 'quality_eyes': '3', 'quality_mouth': '3', 'quality_ears': '3', 'quality_hair': '3', 'quality_neck': '3', 'facial_hair': '0.0', 'notes': None, 'race_common': 'white', 'gender_common': 'man'}",,,,,,,,,,,,,,,,,,,,,,,,,,,,,,,,,,,,,,,,,,,,,,6267206b1871ea3358531c84,6266e20a583caa8581feb914,6266d12bc803262aae0e8de2,,,,,,,,,,,,,,,,,,,,
9981,626721ef06b19921fe99d799,Chrome,3.0,main_task,1.0,3.0,chris,"4/25/2022, 4:34:23 PM",ubkhnf1vvemlu6jd18rk,0.0-58.0,pilot_prolific_test_typicals,40,woman,127,2.0,black,50R,D,3402.0,"['../stimuli/version1_gray_lm/id020_25L_C.png', '../stimuli/version1_gray_lm/id020_00C_U.png', '../stimuli/version1_gray_lm/id127_50R_D.png']",259176.0,0.0,63.0,28.0,encoding,woman,020,"[0, 1]",black,"['25L', '00C']","['C', 'U']",,"{'muct_id': '435', 'lighting': 'x', 'race_guess': 'b', 'gender_guess': 'w', 'quality': '3', 'quality_eyes': '3', 'quality_mouth': '3', 'quality_ears': '3', 'quality_hair': '3', 'quality_neck': '3', 'facial_hair': '0.0', 'notes': 'bandana', 'race_common': 'black', 'gender_common': 'woman'}","{'muct_id': '24', 'lighting': 'q', 'race_guess': 'b', 'gender_guess': 'w', 'quality': '3', 'quality_eyes': '3', 'quality_mouth': '3', 'quality_ears': '3', 'quality_hair': '3', 'quality_neck': '3', 'facial_hair': '0.0', 'notes': None, 'race_common': 'black', 'gender_common': 'woman'}",,,,,,,,,,,,,,,,,,,,,,,,,,,,,,,,,,,,,,,,,,,,,,6267206b1871ea3358531c84,6266e20a583caa8581feb914,6266d12bc803262aae0e8de2,,,,,,,,,,,,,,,,,,,,
9982,626721f406b19921fe99d79a,Chrome,1.0,main_task,1.0,1.0,chris,"4/25/2022, 4:34:27 PM",ubkhnf1vvemlu6jd18rk,0.0-60.0,pilot_prolific_test_typicals,37,woman,148,0.0,white,50L,D,3084.0,"['../stimuli/version1_gray_lm/id148_50L_D.png', '../stimuli/version1_gray_lm/id017_25R_C.png', '../stimuli/version1_gray_lm/id017_00C_U.png']",263548.0,0.0,65.0,29.0,encoding,woman,017,"[1, 2]",white,"['25R', '00C']","['C', 'U']",,"{'muct_id': '415', 'lighting': 'w', 'race_guess': 'w', 'gender_guess': 'w', 'quality': '3', 'quality_eyes': '3', 'quality_mouth': '3', 'quality_ears': '3', 'quality_hair': '3', 'quality_neck': '3', 'facial_hair': '0.0', 'notes': None, 'race_common': 'white', 'gender_common': 'woman'}","{'muct_id': '19', 'lighting': 'r', 'race_guess': 'w', 'gender_guess': 'w', 'quality': '3', 'quality_eyes': '3', 'quality_mouth': '3', 'quality_ears': '3', 'quality_hair': '3', 'quality_neck': '3', 'facial_hair': '0.0', 'notes': None, 'race_common': 'white', 'gender_common': 'woman'}",,,,,,,,,,,,,,,,,,,,,,,,,,,,,,,,,,,,,,,,,,,,,,6267206b1871ea3358531c84,6266e20a583caa8581feb914,6266d12bc803262aae0e8de2,,,,,,,,,,,,,,,,,,,,
9983,626721fa06b19921fe99d79b,Chrome,2.0,main_task,1.0,2.0,chris,"4/25/2022, 4:34:34 PM",ubkhnf1vvemlu6jd18rk,0.0-62.0,pilot_prolific_test_typicals,39,man,128,1.0,black,25R,C,5398.0,"['../stimuli/version1_gray_lm/id065_00C_U.png', '../stimuli/version1_gray_lm/id128_25R_C.png', '../stimuli/version1_gray_lm/id065_50L_D.png']",270145.0,0.0,67.0,30.0,encoding,man,065,"[0, 2]",black,"['00C', '50L']","['U', 'D']",,"{'muct_id': '436', 'lighting': 'w', 'race_guess': 'b', 'gender_guess': 'm', 'quality': '3', 'quality_eyes': '3', 'quality_mouth': '3', 'quality_ears': '3', 'quality_hair': '3', 'quality_neck': '3', 'facial_hair': '3.0', 'notes': 'beard', 'race_common': 'black', 'gender_common': 'man'}","{'muct_id': '206', 'lighting': 't', 'race_guess': 'b', 'gender_guess': 'm', 'quality': '3', 'quality_eyes': '3', 'quality_mouth': '3', 'quality_ears': '3', 'quality_hair': '3', 'quality_neck': '3', 'facial_hair': '1.0', 'notes': None, 'race_common': 'black', 'gender_common': 'man'}",,,,,,,,,,,,,,,,,,,,,,,,,,,,,,,,,,,,,,,,,,,,,,6267206b1871ea3358531c84,6266e20a583caa8581feb914,6266d12bc803262aae0e8de2,,,,,,,,,,,,,,,,,,,,
9984,626721fe06b19921fe99d79c,Chrome,1.0,main_task,1.0,1.0,chris,"4/25/2022, 4:34:38 PM",ubkhnf1vvemlu6jd18rk,0.0-64.0,pilot_prolific_test_typicals,37,man,132,0.0,black,25R,C,3122.0,"['../stimuli/version1_gray_lm/id132_25R_C.png', '../stimuli/version1_gray_lm/id028_50L_U.png', '../stimuli/version1_gray_lm/id028_00C_D.png']",274260.0,0.0,69.0,31.0,encoding,man,028,"[1, 2]",black,"['50L', '00C']","['U', 'D']",,"{'muct_id': '450', 'lighting': 'w', 'race_guess': 'b', 'gender_guess': 'm', 'quality': '3', 'quality_eyes': '3', 'quality_mouth': '3', 'quality_ears': '3', 'quality_hair': '3', 'quality_neck': '3', 'facial_hair': '4.0', 'notes': 'mouth', 'race_common': 'black', 'gender_common': 'man'}","{'muct_id': '38', 'lighting': 'q', 'race_guess': 'b', 'gender_guess': 'm', 'quality': '3', 'quality_eyes': '3', 'quality_mouth': '3', 'quality_ears': '3', 'quality_hair': '3', 'quality_neck': '3', 'facial_hair': '2.0', 'notes': None, 'race_common': 'black', 'gender_common': 'man'}",,,,,,,,,,,,,,,,,,,,,,,,,,,,,,,,,,,,,,,,,,,,,,6267206b1871ea3358531c84,6266e20a583caa8581feb914,6266d12bc803262aae0e8de2,,,,,,,,,,,,,,,,,,,,
9985,6267220306b19921fe99d79d,Chrome,3.0,main_task,1.0,3.0,chris,"4/25/2022, 4:34:43 PM",ubkhnf1vvemlu6jd18rk,0.0-66.0,pilot_prolific_test_typicals,40,man,149,2.0,white,00C,D,4139.0,"['../stimuli/version1_gray_lm/id063_25L_U.png', '../stimuli/version1_gray_lm/id063_25R_C.png', '../stimuli/version1_gray_lm/id149_00C_D.png']",279289.0,0.0,71.0,32.0,encoding,man,063,"[0, 1]",white,"['25L', '25R']","['U', 'C']",,"{'muct_id': '416', 'lighting': 'w', 'race_guess': 'w', 'gender_guess': 'm', 'quality': '3', 'quality_eyes': '3', 'quality_mouth': '3', 'quality_ears': '3', 'quality_hair': '3', 'quality_neck': '3', 'facial_hair': '2.0', 'notes': None, 'race_common': 'white', 'gender_common': 'man'}","{'muct_id': '203', 'lighting': 'u', 'race_guess': 'i', 'gender_guess': 'm', 'quality': '2', 'quality_eyes': '2', 'quality_mouth': '3', 'quality_ears': '3', 'quality_hair': '3', 'quality_neck': '3', 'facial_hair': '2.0', 'notes': 'mouth', 'race_common': 'white', 'gender_common': 'man'}",,,,,,,,,,,,,,,,,,,,,,,,,,,,,,,,,,,,,,,,,,,,,,6267206b1871ea3358531c84,6266e20a583caa8581feb914,6266d12bc803262aae0e8de2,,,,,,,,,,,,,,,,,,,,
9986,6267220906b19921fe99d79e,Chrome,3.0,main_task,1.0,3.0,chris,"4/25/2022, 4:34:48 PM",ubkhnf1vvemlu6jd18rk,0.0-68.0,pilot_prolific_test_typicals,40,woman,151,2.0,white,25L,C,4354.0,"['../stimuli/version1_gray_lm/id031_25R_D.png', '../stimuli/version1_gray_lm/id031_00C_U.png', '../stimuli/version1_gray_lm/id151_25L_C.png']",284600.0,0.0,73.0,33.0,encoding,woman,031,"[0, 1]",white,"['25R', '00C']","['D', 'U']",,"{'muct_id': '444', 'lighting': 'w', 'race_guess': 'w', 'gender_guess': 'w', 'quality': '3', 'quality_eyes': '3', 'quality_mouth': '3', 'quality_ears': '3', 'quality_hair': '3', 'quality_neck': '3', 'facial_hair': '0.0', 'notes': None, 'race_common': 'white', 'gender_common': 'woman'}","{'muct_id': '42', 'lighting': 'q', 'race_guess': 'u', 'gender_guess': 'w', 'quality': '2', 'quality_eyes': '3', 'quality_mouth': '3', 'quality_ears': '2', 'quality_hair': '3', 'quality_neck': '3', 'facial_hair': '0.0', 'notes': 'mouth', 'race_common': 'white', 'gender_common': 'woman'}",,,,,,,,,,,,,,,,,,,,,,,,,,,,,,,,,,,,,,,,,,,,,,6267206b1871ea3358531c84,6266e20a583caa8581feb914,6266d12bc803262aae0e8de2,,,,,,,,,,,,,,,,,,,,
9987,6267220f06b19921fe99d79f,Chrome,2.0,main_task,1.0,2.0,chris,"4/25/2022, 4:34:55 PM",ubkhnf1vvemlu6jd18rk,0.0-70.0,pilot_prolific_test_typicals,39,woman,136,1.0,black,00C,D,5038.0,"['../stimuli/version1_gray_lm/id077_50R_C.png', '../stimuli/version1_gray_lm/id136_00C_D.png', '../stimuli/version1_gray_lm/id077_50L_U.png']",290864.0,0.0,75.0,34.0,encoding,woman,077,"[0, 2]",black,"['50R', '50L']","['C', 'U']",,"{'muct_id': '616', 'lighting': 'y', 'race_guess': 'b', 'gender_guess': 'w', 'quality': '3', 'quality_eyes': '3', 'quality_mouth': '3', 'quality_ears': '3', 'quality_hair': '3', 'quality_neck': '3', 'facial_hair': '0.0', 'notes': 'earrings', 'race_common': 'black', 'gender_common': 'woman'}","{'muct_id': '235', 'lighting': 'u', 'race_guess': 'b', 'gender_guess': 'w', 'quality': '3', 'quality_eyes': '3', 'quality_mouth': '3', 'quality_ears': '3', 'quality_hair': '3', 'quality_neck': '3', 'facial_hair': '0.0', 'notes': 'earrings', 'race_common': 'black', 'gender_common': 'woman'}",,,,,,,,,,,,,,,,,,,,,,,,,,,,,,,,,,,,,,,,,,,,,,6267206b1871ea3358531c84,6266e20a583caa8581feb914,6266d12bc803262aae0e8de2,,,,,,,,,,,,,,,,,,,,
9988,6267221506b19921fe99d7a0,Chrome,1.0,main_task,0.0,2.0,chris,"4/25/2022, 4:35:01 PM",ubkhnf1vvemlu6jd18rk,0.0-72.0,pilot_prolific_test_typicals,37,woman,133,1.0,black,25R,C,5171.0,"['../stimuli/version1_gray_lm/id140_25L_U.png', '../stimuli/version1_gray_lm/id133_25R_C.png', '../stimuli/version1_gray_lm/id140_00C_D.png']",297011.0,0.0,77.0,35.0,encoding,woman,140,"[0, 2]",black,"['25L', '00C']","['U', 'D']",,"{'muct_id': '601', 'lighting': 'y', 'race_guess': 'b', 'gender_guess': 'w', 'quality': '3', 'quality_eyes': '3', 'quality_mouth': '3', 'quality_ears': '3', 'quality_hair': '3', 'quality_neck': '3', 'facial_hair': '0.0', 'notes': 'mouth', 'race_common': 'black', 'gender_common': 'woman'}","{'muct_id': '624', 'lighting': 'y', 'race_guess': 'b', 'gender_guess': 'w', 'quality': '3', 'quality_eyes': '3', 'quality_mouth': '3', 'quality_ears': '3', 'quality_hair': '3', 'quality_neck': '3', 'facial_hair': '0.0', 'notes': 'headband, earring', 'race_common': 'black', 'gender_common': 'woman'}",,,,,,,,,,,,,,,,,,,,,,,,,,,,,,,,,,,,,,,,,,,,,,6267206b1871ea3358531c84,6266e20a583caa8581feb914,6266d12bc803262aae0e8de2,,,,,,,,,,,,,,,,,,,,
9989,6267221c06b19921fe99d7a1,Chrome,2.0,main_task,1.0,2.0,chris,"4/25/2022, 4:35:08 PM",ubkhnf1vvemlu6jd18rk,0.0-74.0,pilot_prolific_test_typicals,39,woman,152,1.0,white,50L,C,5842.0,"['../stimuli/version1_gray_lm/id084_00C_D.png', '../stimuli/version1_gray_lm/id152_50L_C.png', '../stimuli/version1_gray_lm/id084_25R_U.png']",303694.0,0.0,79.0,36.0,encoding,woman,084,"[0, 2]",white,"['00C', '25R']","['D', 'U']",,"{'muct_id': '446', 'lighting': 'w', 'race_guess': 'w', 'gender_guess': 'w', 'quality': '3', 'quality_eyes': '3', 'quality_mouth': '3', 'quality_ears': '3', 'quality_hair': '3', 'quality_neck': '3', 'facial_hair': '0.0', 'notes': None, 'race_common': 'white', 'gender_common': 'woman'}","{'muct_id': '248', 'lighting': 'u', 'race_guess': 'w', 'gender_guess': 'w', 'quality': '3', 'quality_eyes': '3', 'quality_mouth': '3', 'quality_ears': '3', 'quality_hair': '3', 'quality_neck': '3', 'facial_hair': '0.0', 'notes': None, 'race_common': 'white', 'gender_common': 'woman'}",,,,,,,,,,,,,,,,,,,,,,,,,,,,,,,,,,,,,,,,,,,,,,6267206b1871ea3358531c84,6266e20a583caa8581feb914,6266d12bc803262aae0e8de2,,,,,,,,,,,,,,,,,,,,
9990,6267221f06b19921fe99d7a2,Chrome,1.0,main_task,1.0,1.0,chris,"4/25/2022, 4:35:11 PM",ubkhnf1vvemlu6jd18rk,0.0-76.0,pilot_prolific_test_typicals,37,man,139,0.0,black,25L,U,2614.0,"['../stimuli/version1_gray_lm/id139_25L_U.png', '../stimuli/version1_gray_lm/id001_00C_D.png', '../stimuli/version1_gray_lm/id001_25R_C.png']",307357.0,0.0,81.0,37.0,encoding,man,001,"[1, 2]",black,"['00C', '25R']","['D', 'C']",,"{'muct_id': '623', 'lighting': 'y', 'race_guess': 'b', 'gender_guess': 'm', 'quality': '3', 'quality_eyes': '3', 'quality_mouth': '3', 'quality_ears': '3', 'quality_hair': '3', 'quality_neck': '3', 'facial_hair': '1.0', 'notes': 'mouth', 'race_common': 'black', 'gender_common': 'man'}","{'muct_id': '1', 'lighting': 'q', 'race_guess': 'b', 'gender_guess': 'm', 'quality': '3', 'quality_eyes': '3', 'quality_mouth': '3', 'quality_ears': '3', 'quality_hair': '3', 'quality_neck': '3', 'facial_hair': '1.0', 'notes': None, 'race_common': 'black', 'gender_common': 'man'}",,,,,,,,,,,,,,,,,,,,,,,,,,,,,,,,,,,,,,,,,,,,,,6267206b1871ea3358531c84,6266e20a583caa8581feb914,6266d12bc803262aae0e8de2,,,,,,,,,,,,,,,,,,,,
9991,6267222606b19921fe99d7a3,Chrome,1.0,main_task,0.0,2.0,chris,"4/25/2022, 4:35:18 PM",ubkhnf1vvemlu6jd18rk,0.0-78.0,pilot_prolific_test_typicals,37,woman,155,1.0,white,50L,U,6117.0,"['../stimuli/version1_gray_lm/id007_50R_C.png', '../stimuli/version1_gray_lm/id155_50L_U.png', '../stimuli/version1_gray_lm/id007_00C_D.png']",314318.0,0.0,83.0,38.0,encoding,woman,007,"[0, 2]",white,"['50R', '00C']","['C', 'D']",,"{'muct_id': '615', 'lighting': 'z', 'race_guess': 'w', 'gender_guess': 'w', 'quality': '3', 'quality_eyes': '3', 'quality_mouth': '3', 'quality_ears': '3', 'quality_hair': '3', 'quality_neck': '3', 'facial_hair': '0.0', 'notes': 'earrings', 'race_common': 'white', 'gender_common': 'woman'}","{'muct_id': '7', 'lighting': 's', 'race_guess': 'u', 'gender_guess': 'w', 'quality': '3', 'quality_eyes': '3', 'quality_mouth': '3', 'quality_ears': '3', 'quality_hair': '3', 'quality_neck': '3', 'facial_hair': '0.0', 'notes': None, 'race_common': 'white', 'gender_common': 'woman'}",,,,,,,,,,,,,,,,,,,,,,,,,,,,,,,,,,,,,,,,,,,,,,6267206b1871ea3358531c84,6266e20a583caa8581feb914,6266d12bc803262aae0e8de2,,,,,,,,,,,,,,,,,,,,
9992,6267222d06b19921fe99d7a4,Chrome,3.0,main_task,0.0,2.0,chris,"4/25/2022, 4:35:25 PM",ubkhnf1vvemlu6jd18rk,0.0-80.0,pilot_prolific_test_typicals,40,woman,153,1.0,white,00C,C,5425.0,"['../stimuli/version1_gray_lm/id076_50R_U.png', '../stimuli/version1_gray_lm/id153_00C_C.png', '../stimuli/version1_gray_lm/id076_25L_D.png']",320790.0,0.0,85.0,39.0,encoding,woman,076,"[0, 2]",white,"['50R', '25L']","['U', 'D']",,"{'muct_id': '437', 'lighting': 'x', 'race_guess': 'w', 'gender_guess': 'w', 'quality': '3', 'quality_eyes': '3', 'quality_mouth': '3', 'quality_ears': '3', 'quality_hair': '3', 'quality_neck': '3', 'facial_hair': '0.0', 'notes': 'hair', 'race_common': 'white', 'gender_common': 'woman'}","{'muct_id': '233', 'lighting': 'u', 'race_guess': 'w', 'gender_guess': 'w', 'quality': '3', 'quality_eyes': '3', 'quality_mouth': '3', 'quality_ears': '3', 'quality_hair': '3', 'quality_neck': '3', 'facial_hair': '0.0', 'notes': 'earrings', 'race_common': 'white', 'gender_common': 'woman'}",,,,,,,,,,,,,,,,,,,,,,,,,,,,,,,,,,,,,,,,,,,,,,6267206b1871ea3358531c84,6266e20a583caa8581feb914,6266d12bc803262aae0e8de2,,,,,,,,,,,,,,,,,,,,
9993,6267223606b19921fe99d7a5,Chrome,2.0,main_task,0.0,1.0,chris,"4/25/2022, 4:35:34 PM",ubkhnf1vvemlu6jd18rk,0.0-82.0,pilot_prolific_test_typicals,39,man,137,0.0,black,25L,U,4371.0,"['../stimuli/version1_gray_lm/id137_25L_U.png', '../stimuli/version1_gray_lm/id085_00C_C.png', '../stimuli/version1_gray_lm/id085_50R_D.png']",329810.0,0.0,87.0,40.0,encoding,man,085,"[1, 2]",black,"['00C', '50R']","['C', 'D']",,"{'muct_id': '617', 'lighting': 'y', 'race_guess': 'b', 'gender_guess': 'w', 'quality': '3', 'quality_eyes': '3', 'quality_mouth': '3', 'quality_ears': '3', 'quality_hair': '3', 'quality_neck': '3', 'facial_hair': '0.0', 'notes': 'mouth', 'race_common': 'black', 'gender_common': 'man'}","{'muct_id': '249', 'lighting': 't', 'race_guess': 'b', 'gender_guess': 'w', 'quality': '2', 'quality_eyes': '2', 'quality_mouth': '3', 'quality_ears': '3', 'quality_hair': '3', 'quality_neck': '3', 'facial_hair': '0.0', 'notes': None, 'race_common': 'black', 'gender_common': 'man'}",,,,,,,,,,,,,,,,,,,,,,,,,,,,,,,,,,,,,,,,,,,,,,6267206b1871ea3358531c84,6266e20a583caa8581feb914,6266d12bc803262aae0e8de2,,,,,,,,,,,,,,,,,,,,
9994,6267223f06b19921fe99d7a6,Chrome,,main_task,,,chris,"4/25/2022, 4:35:43 PM",,0.0-84.0,pilot_prolific_test_typicals,,,,,,,,8141.300000190735,"<p style='font-size: 150%'><b>You have finished Part 1!</b></p><p>Nice job! On this section, you averaged <b>83% accuracy</b>.</p><p>You're on track to earn a good bonus. Keep up the good work!</p><p>Click 'Next' to continue to Part 2.</p>",338964.0,,89.0,,bonus_update,,,,,,,,,,0,encoding,2.9099999999999997,,,,,,,,,,,,,,,,,,,,,,,,,,,,,,,,,,,,,,,,,,,6267206b1871ea3358531c84,6266e20a583caa8581feb914,6266d12bc803262aae0e8de2,,,,,,,,,,,,,,,,,,,,
9995,6267227006b19921fe99d7a7,Chrome,1.0,main_task,0.0,2.0,chris,"4/25/2022, 4:36:32 PM",ubkhnf1vvemlu6jd18rk,0.0-86.0-0.0,pilot_prolific_test_typicals,37,,,2856.0,,,,9637.0,"['../stimuli/objectome/2400.jpeg', '../stimuli/objectome/2856.jpeg', '../stimuli/objectome/2416.jpeg']",388211.0,0.0,91.0,1.0,filler,,,,,,,,,,,,,planes,f16,planes,mig29,within,"{'1': None, '2': None, '3': None}",planes,"[2400, 2416]",f16,V3,,,,,,,,,,,,,,,,,,,,,,,,,,,,,,,,,6267206b1871ea3358531c84,6266e20a583caa8581feb914,6266d12bc803262aae0e8de2,,,,,,,,,,,,,,,,,,,,
9996,6267227606b19921fe99d7a8,Chrome,2.0,main_task,1.0,2.0,chris,"4/25/2022, 4:36:38 PM",ubkhnf1vvemlu6jd18rk,0.0-86.1-0.1,pilot_prolific_test_typicals,39,,,2856.0,,,,2477.0,"['../stimuli/objectome/2400.jpeg', '../stimuli/objectome/2856.jpeg', '../stimuli/objectome/2416.jpeg']",393660.0,0.0,93.0,2.0,filler,,,,,,,,,,,,,planes,mig29,planes,mig29,within,"{'1': None, '2': None, '3': None}",planes,"[2400, 2416]",f16,V3,,,,,,,,,,,,,,,,,,,,,,,,,,,,,,,,,6267206b1871ea3358531c84,6266e20a583caa8581feb914,6266d12bc803262aae0e8de2,,,,,,,,,,,,,,,,,,,,
9997,6267227b06b19921fe99d7a9,Chrome,2.0,main_task,1.0,2.0,chris,"4/25/2022, 4:36:43 PM",ubkhnf1vvemlu6jd18rk,0.0-87.0-0.0,pilot_prolific_test_typicals,39,,,2980.0,,,,3572.0,"['../stimuli/objectome/1614.jpeg', '../stimuli/objectome/2980.jpeg', '../stimuli/objectome/1610.jpeg']",398736.0,0.0,95.0,3.0,filler,,,,,,,,,,,,,planes,rdbarren,planes,rdbarren,within,"{'1': None, '2': None, '3': None}",planes,"[1614, 1610]",_05_future,V3,,,,,,,,,,,,,,,,,,,,,,,,,,,,,,,,,6267206b1871ea3358531c84,6266e20a583caa8581feb914,6266d12bc803262aae0e8de2,,,,,,,,,,,,,,,,,,,,
9998,6267228006b19921fe99d7aa,Chrome,1.0,main_task,1.0,1.0,chris,"4/25/2022, 4:36:48 PM",ubkhnf1vvemlu6jd18rk,0.0-88.0-0.0,pilot_prolific_test_typicals,37,,,1216.0,,,,3790.0,"['../stimuli/objectome/1216.jpeg', '../stimuli/objectome/981.jpeg', '../stimuli/objectome/960.jpeg']",403826.0,0.0,97.0,4.0,filler,,,,,,,,,,,,,animals,TURTLE_L,animals,TURTLE_L,within,"{'1': None, '2': None, '3': None}",animals,"[981, 960]",LIONESS,V3,,,,,,,,,,,,,,,,,,,,,,,,,,,,,,,,,6267206b1871ea3358531c84,6266e20a583caa8581feb914,6266d12bc803262aae0e8de2,,,,,,,,,,,,,,,,,,,,
9999,6267228c06b19921fe99d7ab,Chrome,3.0,main_task,1.0,3.0,chris,"4/25/2022, 4:37:00 PM",ubkhnf1vvemlu6jd18rk,0.0-90.0,pilot_prolific_test_typicals,40,,,2263.0,,,,4411.0,"['../stimuli/objectome/2795.jpeg', '../stimuli/objectome/2776.jpeg', '../stimuli/objectome/2263.jpeg']",416132.0,0.0,100.0,5.0,filler,,,,,,,,,,,,,animals,breed_pug,animals,breed_pug,within,"{'1': None, '2': None, '3': None}",animals,"[2795, 2776]",hedgehog,V3,,,,,,,,,,,,,,,,,,,,,,,,,,,,,,,,,6267206b1871ea3358531c84,6266e20a583caa8581feb914,6266d12bc803262aae0e8de2,,,,,,,,,,,,,,,,,,,,
10000,6267229206b19921fe99d7ac,Chrome,1.0,main_task,1.0,1.0,chris,"4/25/2022, 4:37:06 PM",ubkhnf1vvemlu6jd18rk,0.0-92.0,pilot_prolific_test_typicals,37,,,2968.0,,,,4299.0,"['../stimuli/objectome/2968.jpeg', '../stimuli/objectome/1861.jpeg', '../stimuli/objectome/1870.jpeg']",422296.0,0.0,102.0,6.0,filler,,,,,,,,,,,,,planes,rdbarren,planes,rdbarren,within,"{'1': None, '2': None, '3': None}",planes,"[1861, 1870]",_19_flyingBoat,V3,,,,,,,,,,,,,,,,,,,,,,,,,,,,,,,,,6267206b1871ea3358531c84,6266e20a583caa8581feb914,6266d12bc803262aae0e8de2,,,,,,,,,,,,,,,,,,,,
10001,6267229606b19921fe99d7ad,Chrome,2.0,main_task,1.0,2.0,chris,"4/25/2022, 4:37:10 PM",ubkhnf1vvemlu6jd18rk,0.0-94.0,pilot_prolific_test_typicals,39,,,889.0,,,,2675.0,"['../stimuli/objectome/2265.jpeg', '../stimuli/objectome/889.jpeg', '../stimuli/objectome/2243.jpeg']",426226.0,0.0,104.0,7.0,filler,,,,,,,,,,,,,animals,ELEPHANT_M,animals,ELEPHANT_M,within,"{'1': None, '2': None, '3': None}",animals,"[2265, 2243]",breed_pug,V3,,,,,,,,,,,,,,,,,,,,,,,,,,,,,,,,,6267206b1871ea3358531c84,6266e20a583caa8581feb914,6266d12bc803262aae0e8de2,,,,,,,,,,,,,,,,,,,,
10002,6267229b06b19921fe99d7ae,Chrome,1.0,main_task,1.0,1.0,chris,"4/25/2022, 4:37:14 PM",ubkhnf1vvemlu6jd18rk,0.0-96.0,pilot_prolific_test_typicals,37,,,2264.0,,,,3318.0,"['../stimuli/objectome/2264.jpeg', '../stimuli/objectome/969.jpeg', '../stimuli/objectome/999.jpeg']",430572.0,0.0,106.0,8.0,filler,,,,,,,,,,,,,animals,breed_pug,animals,breed_pug,within,"{'1': None, '2': None, '3': None}",animals,"[969, 999]",LIONESS,V3,,,,,,,,,,,,,,,,,,,,,,,,,,,,,,,,,6267206b1871ea3358531c84,6266e20a583caa8581feb914,6266d12bc803262aae0e8de2,,,,,,,,,,,,,,,,,,,,
10003,6267229e06b19921fe99d7af,Chrome,1.0,main_task,1.0,1.0,chris,"4/25/2022, 4:37:18 PM",ubkhnf1vvemlu6jd18rk,0.0-98.0,pilot_prolific_test_typicals,37,,,2276.0,,,,2046.0,"['../stimuli/objectome/2276.jpeg', '../stimuli/objectome/2094.jpeg', '../stimuli/objectome/2091.jpeg']",433717.0,0.0,108.0,9.0,filler,,,,,,,,,,,,,animals,breed_pug,animals,breed_pug,within,"{'1': None, '2': None, '3': None}",animals,"[2094, 2091]",bear,V3,,,,,,,,,,,,,,,,,,,,,,,,,,,,,,,,,6267206b1871ea3358531c84,6266e20a583caa8581feb914,6266d12bc803262aae0e8de2,,,,,,,,,,,,,,,,,,,,
10004,626722a206b19921fe99d7b0,Chrome,2.0,main_task,1.0,2.0,chris,"4/25/2022, 4:37:22 PM",ubkhnf1vvemlu6jd18rk,0.0-100.0,pilot_prolific_test_typicals,39,,,2968.0,,,,3636.0,"['../stimuli/objectome/1861.jpeg', '../stimuli/objectome/2968.jpeg', '../stimuli/objectome/1870.jpeg']",438244.0,0.0,110.0,10.0,filler,,,,,,,,,,,,,planes,rdbarren,planes,rdbarren,within,"{'1': None, '2': None, '3': None}",planes,"[1861, 1870]",_19_flyingBoat,V3,,,,,,,,,,,,,,,,,,,,,,,,,,,,,,,,,6267206b1871ea3358531c84,6266e20a583caa8581feb914,6266d12bc803262aae0e8de2,,,,,,,,,,,,,,,,,,,,
10005,626722a606b19921fe99d7b1,Chrome,2.0,main_task,1.0,2.0,chris,"4/25/2022, 4:37:26 PM",ubkhnf1vvemlu6jd18rk,0.0-102.0,pilot_prolific_test_typicals,39,,,1253.0,,,,2517.0,"['../stimuli/objectome/1412.jpeg', '../stimuli/objectome/1253.jpeg', '../stimuli/objectome/1415.jpeg']",441929.0,0.0,112.0,11.0,filler,,,,,,,,,,,,,chairs,_001,chairs,_001,within,"{'1': None, '2': None, '3': None}",chairs,"[1412, 1415]",_011,V3,,,,,,,,,,,,,,,,,,,,,,,,,,,,,,,,,6267206b1871ea3358531c84,6266e20a583caa8581feb914,6266d12bc803262aae0e8de2,,,,,,,,,,,,,,,,,,,,
10006,626722ac06b19921fe99d7b2,Chrome,2.0,main_task,1.0,2.0,chris,"4/25/2022, 4:37:32 PM",ubkhnf1vvemlu6jd18rk,0.0-104.0,pilot_prolific_test_typicals,39,,,2841.0,,,,4905.0,"['../stimuli/objectome/2989.jpeg', '../stimuli/objectome/2841.jpeg', '../stimuli/objectome/2971.jpeg']",447800.0,0.0,114.0,12.0,filler,,,,,,,,,,,,,planes,mig29,planes,mig29,within,"{'1': None, '2': None, '3': None}",planes,"[2989, 2971]",rdbarren,V3,,,,,,,,,,,,,,,,,,,,,,,,,,,,,,,,,6267206b1871ea3358531c84,6266e20a583caa8581feb914,6266d12bc803262aae0e8de2,,,,,,,,,,,,,,,,,,,,
10007,626722af06b19921fe99d7b3,Chrome,1.0,main_task,1.0,1.0,chris,"4/25/2022, 4:37:35 PM",ubkhnf1vvemlu6jd18rk,0.0-106.0,pilot_prolific_test_typicals,37,,,376.0,,,,2096.0,"['../stimuli/objectome/376.jpeg', '../stimuli/objectome/539.jpeg', '../stimuli/objectome/531.jpeg']",450746.0,0.0,116.0,13.0,filler,,,,,,,,,,,,,animals,blCow,animals,blCow,within,"{'1': None, '2': None, '3': None}",animals,"[539, 531]",hedgehog,V0,,,,,,,,,,,,,,,,,,,,,,,,,,,,,,,,,6267206b1871ea3358531c84,6266e20a583caa8581feb914,6266d12bc803262aae0e8de2,,,,,,,,,,,,,,,,,,,,
10008,626722b206b19921fe99d7b4,Chrome,1.0,main_task,1.0,1.0,chris,"4/25/2022, 4:37:38 PM",ubkhnf1vvemlu6jd18rk,0.0-108.0,pilot_prolific_test_typicals,37,,,1366.0,,,,2590.0,"['../stimuli/objectome/1366.jpeg', '../stimuli/objectome/1249.jpeg', '../stimuli/objectome/1259.jpeg']",454149.0,0.0,118.0,14.0,filler,,,,,,,,,,,,,chairs,_010,chairs,_010,within,"{'1': None, '2': None, '3': None}",chairs,"[1249, 1259]",_001,V3,,,,,,,,,,,,,,,,,,,,,,,,,,,,,,,,,6267206b1871ea3358531c84,6266e20a583caa8581feb914,6266d12bc803262aae0e8de2,,,,,,,,,,,,,,,,,,,,
10009,626722b606b19921fe99d7b5,Chrome,1.0,main_task,1.0,1.0,chris,"4/25/2022, 4:37:42 PM",ubkhnf1vvemlu6jd18rk,0.0-110.0,pilot_prolific_test_typicals,37,,,1331.0,,,,2700.0,"['../stimuli/objectome/1331.jpeg', '../stimuli/objectome/1546.jpeg', '../stimuli/objectome/1559.jpeg']",457940.0,0.0,120.0,15.0,filler,,,,,,,,,,,,,chairs,_008,chairs,_008,within,"{'1': None, '2': None, '3': None}",chairs,"[1546, 1559]",_031,V3,,,,,,,,,,,,,,,,,,,,,,,,,,,,,,,,,6267206b1871ea3358531c84,6266e20a583caa8581feb914,6266d12bc803262aae0e8de2,,,,,,,,,,,,,,,,,,,,
10010,626722b906b19921fe99d7b6,Chrome,2.0,main_task,1.0,2.0,chris,"4/25/2022, 4:37:45 PM",ubkhnf1vvemlu6jd18rk,0.0-112.0,pilot_prolific_test_typicals,39,,,2785.0,,,,2028.0,"['../stimuli/objectome/961.jpeg', '../stimuli/objectome/2785.jpeg', '../stimuli/objectome/969.jpeg']",460755.0,0.0,122.0,16.0,filler,,,,,,,,,,,,,animals,hedgehog,animals,hedgehog,within,"{'1': None, '2': None, '3': None}",animals,"[961, 969]",LIONESS,V3,,,,,,,,,,,,,,,,,,,,,,,,,,,,,,,,,6267206b1871ea3358531c84,6266e20a583caa8581feb914,6266d12bc803262aae0e8de2,,,,,,,,,,,,,,,,,,,,
10011,626722c106b19921fe99d7b7,Chrome,3.0,main_task,0.0,1.0,chris,"4/25/2022, 4:37:53 PM",ubkhnf1vvemlu6jd18rk,0.0-114.0,pilot_prolific_test_typicals,40,,,1427.0,,,,7207.0,"['../stimuli/objectome/1427.jpeg', '../stimuli/objectome/1539.jpeg', '../stimuli/objectome/1559.jpeg']",468699.0,0.0,124.0,17.0,filler,,,,,,,,,,,,,chairs,_031,chairs,_011,within,"{'1': None, '2': None, '3': None}",chairs,"[1539, 1559]",_031,V3,,,,,,,,,,,,,,,,,,,,,,,,,,,,,,,,,6267206b1871ea3358531c84,6266e20a583caa8581feb914,6266d12bc803262aae0e8de2,,,,,,,,,,,,,,,,,,,,
10012,626722c406b19921fe99d7b8,Chrome,2.0,main_task,1.0,2.0,chris,"4/25/2022, 4:37:56 PM",ubkhnf1vvemlu6jd18rk,0.0-116.0,pilot_prolific_test_typicals,39,,,1270.0,,,,2454.0,"['../stimuli/objectome/1466.jpeg', '../stimuli/objectome/1270.jpeg', '../stimuli/objectome/1443.jpeg']",472220.0,0.0,126.0,18.0,filler,,,,,,,,,,,,,chairs,_001,chairs,_001,within,"{'1': None, '2': None, '3': None}",chairs,"[1466, 1443]",_014,V3,,,,,,,,,,,,,,,,,,,,,,,,,,,,,,,,,6267206b1871ea3358531c84,6266e20a583caa8581feb914,6266d12bc803262aae0e8de2,,,,,,,,,,,,,,,,,,,,
10013,626722c706b19921fe99d7b9,Chrome,3.0,main_task,1.0,3.0,chris,"4/25/2022, 4:37:59 PM",ubkhnf1vvemlu6jd18rk,0.0-118.0,pilot_prolific_test_typicals,40,,,181.0,,,,1848.0,"['../stimuli/objectome/225.jpeg', '../stimuli/objectome/229.jpeg', '../stimuli/objectome/181.jpeg']",474840.0,0.0,128.0,19.0,filler,,,,,,,,,,,,,chairs,_010,chairs,_010,within,"{'1': None, '2': None, '3': None}",chairs,"[225, 229]",_031,V0,,,,,,,,,,,,,,,,,,,,,,,,,,,,,,,,,6267206b1871ea3358531c84,6266e20a583caa8581feb914,6266d12bc803262aae0e8de2,,,,,,,,,,,,,,,,,,,,
10014,626722cc06b19921fe99d7ba,Chrome,2.0,main_task,1.0,2.0,chris,"4/25/2022, 4:38:04 PM",ubkhnf1vvemlu6jd18rk,0.0-120.0,pilot_prolific_test_typicals,39,,,2992.0,,,,4176.0,"['../stimuli/objectome/3004.jpeg', '../stimuli/objectome/2992.jpeg', '../stimuli/objectome/3032.jpeg']",479890.0,0.0,130.0,20.0,filler,,,,,,,,,,,,,planes,rdbarren,planes,rdbarren,within,"{'1': None, '2': None, '3': None}",planes,"[3004, 3032]",sopwith,V3,,,,,,,,,,,,,,,,,,,,,,,,,,,,,,,,,6267206b1871ea3358531c84,6266e20a583caa8581feb914,6266d12bc803262aae0e8de2,,,,,,,,,,,,,,,,,,,,
10015,626722cf06b19921fe99d7bb,Chrome,2.0,main_task,1.0,2.0,chris,"4/25/2022, 4:38:07 PM",ubkhnf1vvemlu6jd18rk,0.0-122.0,pilot_prolific_test_typicals,39,,,1562.0,,,,2238.0,"['../stimuli/objectome/1530.jpeg', '../stimuli/objectome/1562.jpeg', '../stimuli/objectome/1534.jpeg']",482913.0,0.0,132.0,21.0,filler,,,,,,,,,,,,,chairs,_033,chairs,_033,within,"{'1': None, '2': None, '3': None}",chairs,"[1530, 1534]",_031,V3,,,,,,,,,,,,,,,,,,,,,,,,,,,,,,,,,6267206b1871ea3358531c84,6266e20a583caa8581feb914,6266d12bc803262aae0e8de2,,,,,,,,,,,,,,,,,,,,
10016,626722d606b19921fe99d7bc,Chrome,,main_task,,,chris,"4/25/2022, 4:38:14 PM",,0.0-124.0,pilot_prolific_test_typicals,,,,,,,,6159.800000190735,"<p style='font-size: 150%'><b>You have finished Part 2!</b></p><p>Nice job! On this section, you averaged <b>90% accuracy</b>.</p><p>You're on track to earn a good bonus. Keep up the good work!</p><p>Click 'Next' to continue to Part 3.</p>",489994.0,,134.0,,bonus_update,,,,,,,,,,0,filler,3.720714285714286,,,,,,,,,,,,,,,,,,,,,,,,,,,,,,,,,,,,,,,,,,,6267206b1871ea3358531c84,6266e20a583caa8581feb914,6266d12bc803262aae0e8de2,,,,,,,,,,,,,,,,,,,,
10017,6267234006b19921fe99d7bd,Chrome,,main_task,1.0,1.0,chris,"4/25/2022, 4:40:00 PM",ubkhnf1vvemlu6jd18rk,0.0-126.0-0.0,pilot_prolific_test_typicals,,,,,,,,5008.399999856949,../stimuli/version1_gray_lm/id047_25L_C.png,596418.0,0.0,136.0,1.0,retrieval_practice,,,,,,,,,,,,,,,,,,,,,,,146,typical,man,047,"{'muct_id': '64', 'lighting': 'q', 'race_guess': 'w', 'gender_guess': 'm', 'quality': '3', 'quality_eyes': '3', 'quality_mouth': '3', 'quality_ears': '3', 'quality_hair': '3', 'quality_neck': '3', 'facial_hair': '0.0', 'notes': None, 'race_common': 'white', 'gender_common': 'man'}",26,"['25R', '00C']","['D', 'C']",white,64,old,25L,C,"['50L', '25L']","[-50, -25]",,,,,,,,,,,,,,,,,,6267206b1871ea3358531c84,6266e20a583caa8581feb914,6266d12bc803262aae0e8de2,,,,,,,,,,,,,,,,,,,,
10018,6267234606b19921fe99d7be,Chrome,,main_task,0.0,0.0,chris,"4/25/2022, 4:40:06 PM",ubkhnf1vvemlu6jd18rk,0.0-127.0-0.0,pilot_prolific_test_typicals,,,,,,,,3819.5,../stimuli/version1_gray_lm/id019_25L_U.png,602337.0,0.0,138.0,2.0,retrieval_practice,,,,,,,,,,,,,,,,,,,,,,,,,,019,"{'muct_id': '23', 'lighting': 'q', 'race_guess': 'b', 'gender_guess': 'u', 'quality': '3', 'quality_eyes': '3', 'quality_mouth': '3', 'quality_ears': '3', 'quality_hair': '3', 'quality_neck': '3', 'facial_hair': '0.0', 'notes': None, 'race_common': 'black', 'gender_common': 'woman'}",,,,black,71,new,25L,U,,,,,,,,,,,,,,,,,,,,6267206b1871ea3358531c84,6266e20a583caa8581feb914,6266d12bc803262aae0e8de2,,,,,,,,,,,,,,,,,,,,
10019,6267234c06b19921fe99d7bf,Chrome,,main_task,1.0,0.0,chris,"4/25/2022, 4:40:11 PM",ubkhnf1vvemlu6jd18rk,0.0-127.1-0.1,pilot_prolific_test_typicals,,,,,,,,3243.7000000476837,../stimuli/version1_gray_lm/id019_25L_U.png,607468.0,0.0,140.0,3.0,retrieval_practice,,,,,,,,,,,,,,,,,,,,,,,,,,019,"{'muct_id': '23', 'lighting': 'q', 'race_guess': 'b', 'gender_guess': 'u', 'quality': '3', 'quality_eyes': '3', 'quality_mouth': '3', 'quality_ears': '3', 'quality_hair': '3', 'quality_neck': '3', 'facial_hair': '0.0', 'notes': None, 'race_common': 'black', 'gender_common': 'woman'}",,,,black,24,new,25L,U,,,,,,,,,,,,,,,,,,,,6267206b1871ea3358531c84,6266e20a583caa8581feb914,6266d12bc803262aae0e8de2,,,,,,,,,,,,,,,,,,,,
10020,6267235106b19921fe99d7c0,Chrome,,main_task,1.0,1.0,chris,"4/25/2022, 4:40:17 PM",ubkhnf1vvemlu6jd18rk,0.0-128.0-0.0,pilot_prolific_test_typicals,,,,,,,,3596.0,../stimuli/version1_gray_lm/id013_50R_D.png,612968.0,0.0,142.0,4.0,retrieval_practice,,,,,,,,,,,,,,,,,,,,,,,123,typical,woman,013,"{'muct_id': '14', 'lighting': 'q', 'race_guess': 'w', 'gender_guess': 'w', 'quality': '3', 'quality_eyes': '3', 'quality_mouth': '3', 'quality_ears': '3', 'quality_hair': '3', 'quality_neck': '3', 'facial_hair': '0.0', 'notes': None, 'race_common': 'white', 'gender_common': 'woman'}",18,"['50L', '00C']","['C', 'D']",white,71,old,50R,D,"['100R', '50R']","[100, 50]",,,,,,,,,,,,,,,,,,6267206b1871ea3358531c84,6266e20a583caa8581feb914,6266d12bc803262aae0e8de2,,,,,,,,,,,,,,,,,,,,
10021,6267236006b19921fe99d7c1,Chrome,,main_task,0.0,1.0,chris,"4/25/2022, 4:40:32 PM",ubkhnf1vvemlu6jd18rk,0.0-130.0,pilot_prolific_test_typicals,,,,,,,,5765.099999904633,../stimuli/version1_gray_lm/id031_25R_D.png,628104.0,0.0,145.0,1.0,retrieval,,,,,,,,,,,,,,,,,,,,,,,151,typical,woman,031,"{'muct_id': '42', 'lighting': 'q', 'race_guess': 'u', 'gender_guess': 'w', 'quality': '2', 'quality_eyes': '3', 'quality_mouth': '3', 'quality_ears': '2', 'quality_hair': '3', 'quality_neck': '3', 'facial_hair': '0.0', 'notes': 'mouth', 'race_common': 'white', 'gender_common': 'woman'}",32,"['25R', '00C']","['D', 'U']",white,44,old,25R,D,"['00C', '25R']","[0, 25]",,,,,,,,,,,,,,,,,,6267206b1871ea3358531c84,6266e20a583caa8581feb914,6266d12bc803262aae0e8de2,,,,,,,,,,,,,,,,,,,,
10022,6267236506b19921fe99d7c2,Chrome,,main_task,1.0,1.0,chris,"4/25/2022, 4:40:37 PM",ubkhnf1vvemlu6jd18rk,0.0-132.0,pilot_prolific_test_typicals,,,,,,,,3874.2000000476837,../stimuli/version1_gray_lm/id063_25L_U.png,633311.0,0.0,147.0,2.0,retrieval,,,,,,,,,,,,,,,,,,,,,,,149,typical,man,063,"{'muct_id': '203', 'lighting': 'u', 'race_guess': 'i', 'gender_guess': 'm', 'quality': '2', 'quality_eyes': '2', 'quality_mouth': '3', 'quality_ears': '3', 'quality_hair': '3', 'quality_neck': '3', 'facial_hair': '2.0', 'notes': 'mouth', 'race_common': 'white', 'gender_common': 'man'}",31,"['25L', '25R']","['U', 'C']",white,57,old,25L,U,"['00C', '50L']","[0, -50]",,,,,,,,,,,,,,,,,,6267206b1871ea3358531c84,6266e20a583caa8581feb914,6266d12bc803262aae0e8de2,,,,,,,,,,,,,,,,,,,,
10023,6267236c06b19921fe99d7c3,Chrome,,main_task,1.0,0.0,chris,"4/25/2022, 4:40:44 PM",ubkhnf1vvemlu6jd18rk,0.0-134.0,pilot_prolific_test_typicals,,,,,,,,5338.899999856949,../stimuli/version1_gray_lm/id055_50L_D.png,640043.0,0.0,149.0,3.0,retrieval,,,,,,,,,,,,,,,,,,,,,,,,,,055,"{'muct_id': '81', 'lighting': 'q', 'race_guess': 'b', 'gender_guess': 'm', 'quality': '3', 'quality_eyes': '3', 'quality_mouth': '3', 'quality_ears': '3', 'quality_hair': '3', 'quality_neck': '3', 'facial_hair': '0.0', 'notes': None, 'race_common': 'black', 'gender_common': 'man'}",,,,black,44,new,50L,D,,,,,,,,,,,,,,,,,,,,6267206b1871ea3358531c84,6266e20a583caa8581feb914,6266d12bc803262aae0e8de2,,,,,,,,,,,,,,,,,,,,
10024,6267237206b19921fe99d7c4,Chrome,,main_task,1.0,0.0,chris,"4/25/2022, 4:40:49 PM",ubkhnf1vvemlu6jd18rk,0.0-136.0,pilot_prolific_test_typicals,,,,,,,,4305.899999856949,../stimuli/version1_gray_lm/id097_50L_U.png,645504.0,0.0,151.0,4.0,retrieval,,,,,,,,,,,,,,,,,,,,,,,,,,097,"{'muct_id': '269', 'lighting': 'u', 'race_guess': 'b', 'gender_guess': 'm', 'quality': '3', 'quality_eyes': '3', 'quality_mouth': '3', 'quality_ears': '3', 'quality_hair': '3', 'quality_neck': '3', 'facial_hair': '0.0', 'notes': None, 'race_common': 'black', 'gender_common': 'man'}",,,,black,22,new,50L,U,,,,,,,,,,,,,,,,,,,,6267206b1871ea3358531c84,6266e20a583caa8581feb914,6266d12bc803262aae0e8de2,,,,,,,,,,,,,,,,,,,,
10025,6267237c06b19921fe99d7c5,Chrome,,main_task,0.0,0.0,chris,"4/25/2022, 4:41:00 PM",ubkhnf1vvemlu6jd18rk,0.0-138.0,pilot_prolific_test_typicals,,,,,,,,8874.200000047684,../stimuli/version1_gray_lm/id142_50L_D.png,656082.0,0.0,153.0,5.0,retrieval,,,,,,,,,,,,,,,,,,,,,,,,,,142,"{'muct_id': '87', 'lighting': 'r', 'race_guess': 'b', 'gender_guess': 'w', 'quality': '3', 'quality_eyes': '3', 'quality_mouth': '3', 'quality_ears': '3', 'quality_hair': '3', 'quality_neck': '3', 'facial_hair': '0.0', 'notes': 'earrings hair', 'race_common': 'black', 'gender_common': 'woman'}",,,,black,57,new,50L,D,,,,,,,,,,,,,,,,,,,,6267206b1871ea3358531c84,6266e20a583caa8581feb914,6266d12bc803262aae0e8de2,,,,,,,,,,,,,,,,,,,,
10026,6267238406b19921fe99d7c6,Chrome,,main_task,0.0,1.0,chris,"4/25/2022, 4:41:08 PM",ubkhnf1vvemlu6jd18rk,0.0-140.0,pilot_prolific_test_typicals,,,,,,,,6347.700000047684,../stimuli/version1_gray_lm/id077_25L_U.png,663741.0,0.0,155.0,6.0,retrieval,,,,,,,,,,,,,,,,,,,,,,,136,typical,woman,077,"{'muct_id': '235', 'lighting': 'u', 'race_guess': 'b', 'gender_guess': 'w', 'quality': '3', 'quality_eyes': '3', 'quality_mouth': '3', 'quality_ears': '3', 'quality_hair': '3', 'quality_neck': '3', 'facial_hair': '0.0', 'notes': 'earrings', 'race_common': 'black', 'gender_common': 'woman'}",33,"['50R', '50L']","['C', 'U']",black,44,old,25L,U,"['75L', '25R']","[-75, 25]",,,,,,,,,,,,,,,,,,6267206b1871ea3358531c84,6266e20a583caa8581feb914,6266d12bc803262aae0e8de2,,,,,,,,,,,,,,,,,,,,
10027,6267238906b19921fe99d7c7,Chrome,,main_task,0.0,1.0,chris,"4/25/2022, 4:41:13 PM",ubkhnf1vvemlu6jd18rk,0.0-142.0,pilot_prolific_test_typicals,,,,,,,,3914.7999999523163,../stimuli/version1_gray_lm/id016_50R_C.png,668759.0,0.0,157.0,7.0,retrieval,,,,,,,,,,,,,,,,,,,,,,,120,typical,woman,016,"{'muct_id': '18', 'lighting': 'q', 'race_guess': 'b', 'gender_guess': 'w', 'quality': '3', 'quality_eyes': '3', 'quality_mouth': '3', 'quality_ears': '3', 'quality_hair': '3', 'quality_neck': '3', 'facial_hair': '0.0', 'notes': 'earrings', 'race_common': 'black', 'gender_common': 'woman'}",16,"['25R', '00C']","['U', 'C']",black,4,old,50R,C,"['25R', '50R']","[25, 50]",,,,,,,,,,,,,,,,,,6267206b1871ea3358531c84,6266e20a583caa8581feb914,6266d12bc803262aae0e8de2,,,,,,,,,,,,,,,,,,,,
10028,6267238e06b19921fe99d7c8,Chrome,,main_task,0.0,1.0,chris,"4/25/2022, 4:41:18 PM",ubkhnf1vvemlu6jd18rk,0.0-144.0,pilot_prolific_test_typicals,,,,,,,,3876.600000143051,../stimuli/version1_gray_lm/id081_25L_C.png,674067.0,0.0,159.0,8.0,retrieval,,,,,,,,,,,,,,,,,,,,,,,121,typical,man,081,"{'muct_id': '241', 'lighting': 't', 'race_guess': 'u', 'gender_guess': 'm', 'quality': '3', 'quality_eyes': '3', 'quality_mouth': '3', 'quality_ears': '3', 'quality_hair': '3', 'quality_neck': '3', 'facial_hair': '1.0', 'notes': 'mouth', 'race_common': 'black', 'gender_common': 'man'}",17,"['00C', '50L']","['C', 'D']",black,31,old,25L,C,"['25L', '25R']","[-25, 25]",,,,,,,,,,,,,,,,,,6267206b1871ea3358531c84,6266e20a583caa8581feb914,6266d12bc803262aae0e8de2,,,,,,,,,,,,,,,,,,,,
10029,6267239506b19921fe99d7c9,Chrome,,main_task,0.0,1.0,chris,"4/25/2022, 4:41:25 PM",ubkhnf1vvemlu6jd18rk,0.0-146.0,pilot_prolific_test_typicals,,,,,,,,5609.099999904633,../stimuli/version1_gray_lm/id012_50R_U.png,680800.0,0.0,161.0,9.0,retrieval,,,,,,,,,,,,,,,,,,,,,,,143,typical,man,012,"{'muct_id': '12', 'lighting': 'q', 'race_guess': 'i', 'gender_guess': 'm', 'quality': '3', 'quality_eyes': '3', 'quality_mouth': '3', 'quality_ears': '3', 'quality_hair': '3', 'quality_neck': '3', 'facial_hair': '2.0', 'notes': None, 'race_common': 'white', 'gender_common': 'man'}",23,"['50L', '00C']","['U', 'D']",white,46,old,50R,U,"['100R', '50R']","[100, 50]",,,,,,,,,,,,,,,,,,6267206b1871ea3358531c84,6266e20a583caa8581feb914,6266d12bc803262aae0e8de2,,,,,,,,,,,,,,,,,,,,
10030,6267239d06b19921fe99d7ca,Chrome,,main_task,1.0,1.0,chris,"4/25/2022, 4:41:33 PM",ubkhnf1vvemlu6jd18rk,0.0-148.0,pilot_prolific_test_typicals,,,,,,,,6987.599999904633,../stimuli/version1_gray_lm/id051_25R_U.png,688736.0,0.0,163.0,10.0,retrieval,,,,,,,,,,,,,,,,,,,,,,,125,typical,woman,051,"{'muct_id': '74', 'lighting': 'q', 'race_guess': 'w', 'gender_guess': 'w', 'quality': '3', 'quality_eyes': '3', 'quality_mouth': '3', 'quality_ears': '3', 'quality_hair': '3', 'quality_neck': '3', 'facial_hair': '0.0', 'notes': None, 'race_common': 'white', 'gender_common': 'woman'}",19,"['25L', '25R']","['D', 'U']",white,56,old,25R,U,"['50R', '00C']","[50, 0]",,,,,,,,,,,,,,,,,,6267206b1871ea3358531c84,6266e20a583caa8581feb914,6266d12bc803262aae0e8de2,,,,,,,,,,,,,,,,,,,,
10031,626723a206b19921fe99d7cb,Chrome,,main_task,1.0,1.0,chris,"4/25/2022, 4:41:38 PM",ubkhnf1vvemlu6jd18rk,0.0-150.0,pilot_prolific_test_typicals,,,,,,,,3913.0,../stimuli/version1_gray_lm/id091_25R_C.png,693736.0,0.0,165.0,11.0,retrieval,,,,,,,,,,,,,,,,,,,,,,,117,typical,man,091,"{'muct_id': '260', 'lighting': 't', 'race_guess': 'b', 'gender_guess': 'm', 'quality': '3', 'quality_eyes': '3', 'quality_mouth': '3', 'quality_ears': '3', 'quality_hair': '3', 'quality_neck': '3', 'facial_hair': '4.0', 'notes': 'beard', 'race_common': 'black', 'gender_common': 'man'}",9,"['00C', '25R']","['U', 'C']",black,61,old,25R,C,"['25R', '00C']","[25, 0]",,,,,,,,,,,,,,,,,,6267206b1871ea3358531c84,6266e20a583caa8581feb914,6266d12bc803262aae0e8de2,,,,,,,,,,,,,,,,,,,,
10032,626723aa06b19921fe99d7cc,Chrome,,main_task,0.0,1.0,chris,"4/25/2022, 4:41:46 PM",ubkhnf1vvemlu6jd18rk,0.0-152.0,pilot_prolific_test_typicals,,,,,,,,6867.0,../stimuli/version1_gray_lm/id056_00C_D.png,701665.0,0.0,167.0,12.0,retrieval,,,,,,,,,,,,,,,,,,,,,,,118,typical,man,056,"{'muct_id': '82', 'lighting': 'q', 'race_guess': 'b', 'gender_guess': 'm', 'quality': '3', 'quality_eyes': '3', 'quality_mouth': '3', 'quality_ears': '3', 'quality_hair': '3', 'quality_neck': '3', 'facial_hair': '1.0', 'notes': None, 'race_common': 'black', 'gender_common': 'man'}",13,"['00C', '25R']","['U', 'D']",black,44,old,00C,D,"['00C', '25L']","[0, -25]",,,,,,,,,,,,,,,,,,6267206b1871ea3358531c84,6266e20a583caa8581feb914,6266d12bc803262aae0e8de2,,,,,,,,,,,,,,,,,,,,
10033,626723af06b19921fe99d7cd,Chrome,,main_task,1.0,1.0,chris,"4/25/2022, 4:41:51 PM",ubkhnf1vvemlu6jd18rk,0.0-154.0,pilot_prolific_test_typicals,,,,,,,,4283.0,../stimuli/version1_gray_lm/id094_25R_C.png,707049.0,0.0,169.0,13.0,retrieval,,,,,,,,,,,,,,,,,,,,,,,116,typical,man,094,"{'muct_id': '264', 'lighting': 't', 'race_guess': 'w', 'gender_guess': 'm', 'quality': '3', 'quality_eyes': '3', 'quality_mouth': '3', 'quality_ears': '3', 'quality_hair': '3', 'quality_neck': '3', 'facial_hair': '0.0', 'notes': None, 'race_common': 'white', 'gender_common': 'man'}",14,"['25L', '00C']","['D', 'C']",white,90,old,25R,C,"['50R', '25R']","[50, 25]",,,,,,,,,,,,,,,,,,6267206b1871ea3358531c84,6266e20a583caa8581feb914,6266d12bc803262aae0e8de2,,,,,,,,,,,,,,,,,,,,
10034,626723b606b19921fe99d7ce,Chrome,,main_task,1.0,1.0,chris,"4/25/2022, 4:41:57 PM",ubkhnf1vvemlu6jd18rk,0.0-156.0,pilot_prolific_test_typicals,,,,,,,,5177.0,../stimuli/version1_gray_lm/id017_25R_U.png,713447.0,0.0,171.0,14.0,retrieval,,,,,,,,,,,,,,,,,,,,,,,148,typical,woman,017,"{'muct_id': '19', 'lighting': 'r', 'race_guess': 'w', 'gender_guess': 'w', 'quality': '3', 'quality_eyes': '3', 'quality_mouth': '3', 'quality_ears': '3', 'quality_hair': '3', 'quality_neck': '3', 'facial_hair': '0.0', 'notes': None, 'race_common': 'white', 'gender_common': 'woman'}",28,"['25R', '00C']","['C', 'U']",white,71,old,25R,U,"['00C', '25R']","[0, 25]",,,,,,,,,,,,,,,,,,6267206b1871ea3358531c84,6266e20a583caa8581feb914,6266d12bc803262aae0e8de2,,,,,,,,,,,,,,,,,,,,
10035,626723bc06b19921fe99d7cf,Chrome,,main_task,1.0,1.0,chris,"4/25/2022, 4:42:04 PM",ubkhnf1vvemlu6jd18rk,0.0-158.0,pilot_prolific_test_typicals,,,,,,,,5261.400000095367,../stimuli/version1_gray_lm/id028_50R_U.png,719784.0,0.0,173.0,15.0,retrieval,,,,,,,,,,,,,,,,,,,,,,,132,typical,man,028,"{'muct_id': '38', 'lighting': 'q', 'race_guess': 'b', 'gender_guess': 'm', 'quality': '3', 'quality_eyes': '3', 'quality_mouth': '3', 'quality_ears': '3', 'quality_hair': '3', 'quality_neck': '3', 'facial_hair': '2.0', 'notes': None, 'race_common': 'black', 'gender_common': 'man'}",30,"['50L', '00C']","['U', 'D']",black,55,old,50R,U,"['100R', '50R']","[100, 50]",,,,,,,,,,,,,,,,,,6267206b1871ea3358531c84,6266e20a583caa8581feb914,6266d12bc803262aae0e8de2,,,,,,,,,,,,,,,,,,,,
10036,626723c106b19921fe99d7d0,Chrome,,main_task,0.0,1.0,chris,"4/25/2022, 4:42:09 PM",ubkhnf1vvemlu6jd18rk,0.0-160.0,pilot_prolific_test_typicals,,,,,,,,4311.200000047684,../stimuli/version1_gray_lm/id057_25R_C.png,725039.0,0.0,175.0,16.0,retrieval,,,,,,,,,,,,,,,,,,,,,,,105,typical,man,057,"{'muct_id': '83', 'lighting': 'r', 'race_guess': 'b', 'gender_guess': 'm', 'quality': '3', 'quality_eyes': '3', 'quality_mouth': '3', 'quality_ears': '3', 'quality_hair': '3', 'quality_neck': '3', 'facial_hair': '3.0', 'notes': None, 'race_common': 'black', 'gender_common': 'man'}",0,"['50L', '50R']","['U', 'C']",black,45,old,25R,C,"['75R', '25L']","[75, -25]",,,,,,,,,,,,,,,,,,6267206b1871ea3358531c84,6266e20a583caa8581feb914,6266d12bc803262aae0e8de2,,,,,,,,,,,,,,,,,,,,
10037,626723c806b19921fe99d7d1,Chrome,,main_task,0.0,1.0,chris,"4/25/2022, 4:42:15 PM",ubkhnf1vvemlu6jd18rk,0.0-162.0,pilot_prolific_test_typicals,,,,,,,,5771.200000047684,../stimuli/version1_gray_lm/id001_25L_C.png,731458.0,0.0,177.0,17.0,retrieval,,,,,,,,,,,,,,,,,,,,,,,139,typical,man,001,"{'muct_id': '1', 'lighting': 'q', 'race_guess': 'b', 'gender_guess': 'm', 'quality': '3', 'quality_eyes': '3', 'quality_mouth': '3', 'quality_ears': '3', 'quality_hair': '3', 'quality_neck': '3', 'facial_hair': '1.0', 'notes': None, 'race_common': 'black', 'gender_common': 'man'}",36,"['00C', '25R']","['D', 'C']",black,46,old,25L,C,"['25L', '50L']","[-25, -50]",,,,,,,,,,,,,,,,,,6267206b1871ea3358531c84,6266e20a583caa8581feb914,6266d12bc803262aae0e8de2,,,,,,,,,,,,,,,,,,,,
10038,626723ce06b19921fe99d7d2,Chrome,,main_task,1.0,1.0,chris,"4/25/2022, 4:42:22 PM",ubkhnf1vvemlu6jd18rk,0.0-164.0,pilot_prolific_test_typicals,,,,,,,,5666.400000095367,../stimuli/version1_gray_lm/id092_25L_D.png,738139.0,0.0,179.0,18.0,retrieval,,,,,,,,,,,,,,,,,,,,,,,115,typical,man,092,"{'muct_id': '261', 'lighting': 'v', 'race_guess': 'w', 'gender_guess': 'm', 'quality': '2', 'quality_eyes': '2', 'quality_mouth': '3', 'quality_ears': '3', 'quality_hair': '3', 'quality_neck': '3', 'facial_hair': '0.0', 'notes': None, 'race_common': 'white', 'gender_common': 'man'}",12,"['50L', '50R']","['C', 'D']",white,63,old,25L,D,"['25R', '75L']","[25, -75]",,,,,,,,,,,,,,,,,,6267206b1871ea3358531c84,6266e20a583caa8581feb914,6266d12bc803262aae0e8de2,,,,,,,,,,,,,,,,,,,,
10039,626723d306b19921fe99d7d3,Chrome,,main_task,0.0,0.0,chris,"4/25/2022, 4:42:27 PM",ubkhnf1vvemlu6jd18rk,0.0-166.0,pilot_prolific_test_typicals,,,,,,,,3954.7000000476837,../stimuli/version1_gray_lm/id086_25R_D.png,742753.0,0.0,181.0,19.0,retrieval,,,,,,,,,,,,,,,,,,,,,,,,,,086,"{'muct_id': '250', 'lighting': 't', 'race_guess': 'b', 'gender_guess': 'm', 'quality': '3', 'quality_eyes': '3', 'quality_mouth': '3', 'quality_ears': '3', 'quality_hair': '3', 'quality_neck': '3', 'facial_hair': '1.0', 'notes': None, 'race_common': 'black', 'gender_common': 'man'}",,,,black,59,new,25R,D,,,,,,,,,,,,,,,,,,,,6267206b1871ea3358531c84,6266e20a583caa8581feb914,6266d12bc803262aae0e8de2,,,,,,,,,,,,,,,,,,,,
10040,626723dd06b19921fe99d7d4,Chrome,,main_task,0.0,1.0,chris,"4/25/2022, 4:42:36 PM",ubkhnf1vvemlu6jd18rk,0.0-168.0,pilot_prolific_test_typicals,,,,,,,,8973.0,../stimuli/version1_gray_lm/id088_25R_C.png,752451.0,0.0,183.0,20.0,retrieval,,,,,,,,,,,,,,,,,,,,,,,102,typical,woman,088,"{'muct_id': '252', 'lighting': 't', 'race_guess': 'w', 'gender_guess': 'w', 'quality': '3', 'quality_eyes': '3', 'quality_mouth': '3', 'quality_ears': '3', 'quality_hair': '3', 'quality_neck': '3', 'facial_hair': '0.0', 'notes': 'hair', 'race_common': 'white', 'gender_common': 'woman'}",6,"['50R', '00C']","['C', 'U']",white,46,old,25R,C,"['25L', '25R']","[-25, 25]",,,,,,,,,,,,,,,,,,6267206b1871ea3358531c84,6266e20a583caa8581feb914,6266d12bc803262aae0e8de2,,,,,,,,,,,,,,,,,,,,
10041,626723e106b19921fe99d7d5,Chrome,,main_task,1.0,1.0,chris,"4/25/2022, 4:42:40 PM",ubkhnf1vvemlu6jd18rk,0.0-170.0,pilot_prolific_test_typicals,,,,,,,,3491.2000000476837,../stimuli/version1_gray_lm/id059_50L_D.png,756609.0,0.0,185.0,21.0,retrieval,,,,,,,,,,,,,,,,,,,,,,,111,typical,woman,059,"{'muct_id': '86', 'lighting': 'q', 'race_guess': 'b', 'gender_guess': 'w', 'quality': '3', 'quality_eyes': '3', 'quality_mouth': '3', 'quality_ears': '3', 'quality_hair': '3', 'quality_neck': '3', 'facial_hair': '0.0', 'notes': 'earrings', 'race_common': 'black', 'gender_common': 'woman'}",4,"['25L', '00C']","['D', 'C']",black,56,old,50L,D,"['25L', '50L']","[-25, -50]",,,,,,,,,,,,,,,,,,6267206b1871ea3358531c84,6266e20a583caa8581feb914,6266d12bc803262aae0e8de2,,,,,,,,,,,,,,,,,,,,
10042,626723e606b19921fe99d7d6,Chrome,,main_task,1.0,0.0,chris,"4/25/2022, 4:42:45 PM",ubkhnf1vvemlu6jd18rk,0.0-172.0,pilot_prolific_test_typicals,,,,,,,,4369.599999904633,../stimuli/version1_gray_lm/id050_00C_D.png,761627.0,0.0,187.0,22.0,retrieval,,,,,,,,,,,,,,,,,,,,,,,,,,050,"{'muct_id': '70', 'lighting': 'r', 'race_guess': 'w', 'gender_guess': 'm', 'quality': '3', 'quality_eyes': '3', 'quality_mouth': '3', 'quality_ears': '3', 'quality_hair': '3', 'quality_neck': '3', 'facial_hair': '4.0', 'notes': 'beard', 'race_common': 'white', 'gender_common': 'man'}",,,,white,45,new,00C,D,,,,,,,,,,,,,,,,,,,,6267206b1871ea3358531c84,6266e20a583caa8581feb914,6266d12bc803262aae0e8de2,,,,,,,,,,,,,,,,,,,,
10043,626723eb06b19921fe99d7d7,Chrome,,main_task,1.0,0.0,chris,"4/25/2022, 4:42:51 PM",ubkhnf1vvemlu6jd18rk,0.0-174.0,pilot_prolific_test_typicals,,,,,,,,4387.5,../stimuli/version1_gray_lm/id052_25R_C.png,766801.0,0.0,189.0,23.0,retrieval,,,,,,,,,,,,,,,,,,,,,,,,,,052,"{'muct_id': '75', 'lighting': 'q', 'race_guess': 'w', 'gender_guess': 'm', 'quality': '3', 'quality_eyes': '3', 'quality_mouth': '3', 'quality_ears': '3', 'quality_hair': '3', 'quality_neck': '3', 'facial_hair': '4.0', 'notes': 'beard', 'race_common': 'white', 'gender_common': 'man'}",,,,white,8,new,25R,C,,,,,,,,,,,,,,,,,,,,6267206b1871ea3358531c84,6266e20a583caa8581feb914,6266d12bc803262aae0e8de2,,,,,,,,,,,,,,,,,,,,
10044,626723ef06b19921fe99d7d8,Chrome,,main_task,1.0,1.0,chris,"4/25/2022, 4:42:55 PM",ubkhnf1vvemlu6jd18rk,0.0-176.0,pilot_prolific_test_typicals,,,,,,,,3584.600000143051,../stimuli/version1_gray_lm/id140_25L_D.png,771195.0,0.0,191.0,24.0,retrieval,,,,,,,,,,,,,,,,,,,,,,,133,typical,woman,140,"{'muct_id': '624', 'lighting': 'y', 'race_guess': 'b', 'gender_guess': 'w', 'quality': '3', 'quality_eyes': '3', 'quality_mouth': '3', 'quality_ears': '3', 'quality_hair': '3', 'quality_neck': '3', 'facial_hair': '0.0', 'notes': 'headband, earring', 'race_common': 'black', 'gender_common': 'woman'}",34,"['25L', '00C']","['U', 'D']",black,60,old,25L,D,"['00C', '25L']","[0, -25]",,,,,,,,,,,,,,,,,,6267206b1871ea3358531c84,6266e20a583caa8581feb914,6266d12bc803262aae0e8de2,,,,,,,,,,,,,,,,,,,,
10045,626723f906b19921fe99d7d9,Chrome,,main_task,0.0,0.0,chris,"4/25/2022, 4:43:05 PM",ubkhnf1vvemlu6jd18rk,0.0-178.0,pilot_prolific_test_typicals,,,,,,,,9291.299999952316,../stimuli/version1_gray_lm/id040_00C_U.png,781255.0,0.0,193.0,25.0,retrieval,,,,,,,,,,,,,,,,,,,,,,,,,,040,"{'muct_id': '55', 'lighting': 'r', 'race_guess': 'b', 'gender_guess': 'm', 'quality': '3', 'quality_eyes': '3', 'quality_mouth': '3', 'quality_ears': '3', 'quality_hair': '3', 'quality_neck': '3', 'facial_hair': '3.0', 'notes': 'beard', 'race_common': 'black', 'gender_common': 'man'}",,,,black,57,new,00C,U,,,,,,,,,,,,,,,,,,,,6267206b1871ea3358531c84,6266e20a583caa8581feb914,6266d12bc803262aae0e8de2,,,,,,,,,,,,,,,,,,,,
10046,6267240206b19921fe99d7da,Chrome,,main_task,1.0,0.0,chris,"4/25/2022, 4:43:13 PM",ubkhnf1vvemlu6jd18rk,0.0-180.0,pilot_prolific_test_typicals,,,,,,,,7720.299999952316,../stimuli/version1_gray_lm/id049_00C_D.png,789619.0,0.0,195.0,26.0,retrieval,,,,,,,,,,,,,,,,,,,,,,,,,,049,"{'muct_id': '66', 'lighting': 'r', 'race_guess': 'w', 'gender_guess': 'm', 'quality': '3', 'quality_eyes': '3', 'quality_mouth': '3', 'quality_ears': '3', 'quality_hair': '3', 'quality_neck': '3', 'facial_hair': '0.0', 'notes': None, 'race_common': 'white', 'gender_common': 'man'}",,,,white,46,new,00C,D,,,,,,,,,,,,,,,,,,,,6267206b1871ea3358531c84,6266e20a583caa8581feb914,6266d12bc803262aae0e8de2,,,,,,,,,,,,,,,,,,,,
10047,6267240606b19921fe99d7db,Chrome,,main_task,0.0,1.0,chris,"4/25/2022, 4:43:18 PM",ubkhnf1vvemlu6jd18rk,0.0-182.0,pilot_prolific_test_typicals,,,,,,,,3724.600000143051,../stimuli/version1_gray_lm/id007_25R_C.png,794031.0,0.0,197.0,27.0,retrieval,,,,,,,,,,,,,,,,,,,,,,,155,typical,woman,007,"{'muct_id': '7', 'lighting': 's', 'race_guess': 'u', 'gender_guess': 'w', 'quality': '3', 'quality_eyes': '3', 'quality_mouth': '3', 'quality_ears': '3', 'quality_hair': '3', 'quality_neck': '3', 'facial_hair': '0.0', 'notes': None, 'race_common': 'white', 'gender_common': 'woman'}",37,"['50R', '00C']","['C', 'D']",white,37,old,25R,C,"['25L', '25R']","[-25, 25]",,,,,,,,,,,,,,,,,,6267206b1871ea3358531c84,6266e20a583caa8581feb914,6266d12bc803262aae0e8de2,,,,,,,,,,,,,,,,,,,,
10048,6267240b06b19921fe99d7dc,Chrome,,main_task,0.0,0.0,chris,"4/25/2022, 4:43:22 PM",ubkhnf1vvemlu6jd18rk,0.0-184.0,pilot_prolific_test_typicals,,,,,,,,3817.7000000476837,../stimuli/version1_gray_lm/id034_50R_U.png,798453.0,0.0,199.0,28.0,retrieval,,,,,,,,,,,,,,,,,,,,,,,,,,034,"{'muct_id': '45', 'lighting': 'q', 'race_guess': 'w', 'gender_guess': 'm', 'quality': '3', 'quality_eyes': '3', 'quality_mouth': '3', 'quality_ears': '3', 'quality_hair': '3', 'quality_neck': '3', 'facial_hair': '0.0', 'notes': None, 'race_common': 'white', 'gender_common': 'man'}",,,,white,67,new,50R,U,,,,,,,,,,,,,,,,,,,,6267206b1871ea3358531c84,6266e20a583caa8581feb914,6266d12bc803262aae0e8de2,,,,,,,,,,,,,,,,,,,,
10049,6267241406b19921fe99d7dd,Chrome,,main_task,0.0,0.0,chris,"4/25/2022, 4:43:31 PM",ubkhnf1vvemlu6jd18rk,0.0-186.0,pilot_prolific_test_typicals,,,,,,,,8591.0,../stimuli/version1_gray_lm/id090_50R_D.png,807645.0,0.0,201.0,29.0,retrieval,,,,,,,,,,,,,,,,,,,,,,,,,,090,"{'muct_id': '259', 'lighting': 'v', 'race_guess': 'b', 'gender_guess': 'm', 'quality': '3', 'quality_eyes': '3', 'quality_mouth': '3', 'quality_ears': '3', 'quality_hair': '3', 'quality_neck': '3', 'facial_hair': '2.0', 'notes': None, 'race_common': 'black', 'gender_common': 'man'}",,,,black,54,new,50R,D,,,,,,,,,,,,,,,,,,,,6267206b1871ea3358531c84,6266e20a583caa8581feb914,6266d12bc803262aae0e8de2,,,,,,,,,,,,,,,,,,,,
10050,6267241806b19921fe99d7de,Chrome,,main_task,1.0,1.0,chris,"4/25/2022, 4:43:35 PM",ubkhnf1vvemlu6jd18rk,0.0-188.0,pilot_prolific_test_typicals,,,,,,,,3290.4000000953674,../stimuli/version1_gray_lm/id065_50R_D.png,811569.0,0.0,203.0,30.0,retrieval,,,,,,,,,,,,,,,,,,,,,,,128,typical,man,065,"{'muct_id': '206', 'lighting': 't', 'race_guess': 'b', 'gender_guess': 'm', 'quality': '3', 'quality_eyes': '3', 'quality_mouth': '3', 'quality_ears': '3', 'quality_hair': '3', 'quality_neck': '3', 'facial_hair': '1.0', 'notes': None, 'race_common': 'black', 'gender_common': 'man'}",29,"['00C', '50L']","['U', 'D']",black,55,old,50R,D,"['50R', '100R']","[50, 100]",,,,,,,,,,,,,,,,,,6267206b1871ea3358531c84,6266e20a583caa8581feb914,6266d12bc803262aae0e8de2,,,,,,,,,,,,,,,,,,,,
10051,6267241e06b19921fe99d7df,Chrome,,main_task,0.0,1.0,chris,"4/25/2022, 4:43:41 PM",ubkhnf1vvemlu6jd18rk,0.0-190.0,pilot_prolific_test_typicals,,,,,,,,4864.399999856949,../stimuli/version1_gray_lm/id156_00C_C.png,817568.0,0.0,205.0,31.0,retrieval,,,,,,,,,,,,,,,,,,,,,,,100,typical,man,156,"{'muct_id': '258', 'lighting': 'u', 'race_guess': 'w', 'gender_guess': 'm', 'quality': '2', 'quality_eyes': '3', 'quality_mouth': '3', 'quality_ears': '3', 'quality_hair': '2', 'quality_neck': '3', 'facial_hair': '0.0', 'notes': 'hair', 'race_common': 'white', 'gender_common': 'man'}",2,"['00C', '25L']","['C', 'D']",white,46,old,00C,C,"['00C', '25R']","[0, 25]",,,,,,,,,,,,,,,,,,6267206b1871ea3358531c84,6266e20a583caa8581feb914,6266d12bc803262aae0e8de2,,,,,,,,,,,,,,,,,,,,
10052,6267242206b19921fe99d7e0,Chrome,,main_task,1.0,0.0,chris,"4/25/2022, 4:43:46 PM",ubkhnf1vvemlu6jd18rk,0.0-192.0,pilot_prolific_test_typicals,,,,,,,,3822.7999999523163,../stimuli/version1_gray_lm/id053_50R_D.png,821953.0,0.0,207.0,32.0,retrieval,,,,,,,,,,,,,,,,,,,,,,,,,,053,"{'muct_id': '79', 'lighting': 'r', 'race_guess': 'i', 'gender_guess': 'm', 'quality': '2', 'quality_eyes': '2', 'quality_mouth': '3', 'quality_ears': '3', 'quality_hair': '2', 'quality_neck': '3', 'facial_hair': '0.0', 'notes': None, 'race_common': 'white', 'gender_common': 'man'}",,,,white,9,new,50R,D,,,,,,,,,,,,,,,,,,,,6267206b1871ea3358531c84,6266e20a583caa8581feb914,6266d12bc803262aae0e8de2,,,,,,,,,,,,,,,,,,,,
10053,6267242606b19921fe99d7e1,Chrome,,main_task,1.0,1.0,chris,"4/25/2022, 4:43:50 PM",ubkhnf1vvemlu6jd18rk,0.0-194.0,pilot_prolific_test_typicals,,,,,,,,3528.600000143051,../stimuli/version1_gray_lm/id002_50R_C.png,826225.0,0.0,209.0,33.0,retrieval,,,,,,,,,,,,,,,,,,,,,,,104,typical,man,002,"{'muct_id': '2', 'lighting': 'r', 'race_guess': 'w', 'gender_guess': 'm', 'quality': '3', 'quality_eyes': '3', 'quality_mouth': '3', 'quality_ears': '3', 'quality_hair': '3', 'quality_neck': '3', 'facial_hair': '2.0', 'notes': 'eyes', 'race_common': 'white', 'gender_common': 'man'}",7,"['25R', '00C']","['D', 'C']",white,72,old,50R,C,"['25R', '50R']","[25, 50]",,,,,,,,,,,,,,,,,,6267206b1871ea3358531c84,6266e20a583caa8581feb914,6266d12bc803262aae0e8de2,,,,,,,,,,,,,,,,,,,,
10054,6267242b06b19921fe99d7e2,Chrome,,main_task,1.0,1.0,chris,"4/25/2022, 4:43:55 PM",ubkhnf1vvemlu6jd18rk,0.0-196.0,pilot_prolific_test_typicals,,,,,,,,4010.0,../stimuli/version1_gray_lm/id036_50R_C.png,831078.0,0.0,211.0,34.0,retrieval,,,,,,,,,,,,,,,,,,,,,,,119,typical,man,036,"{'muct_id': '47', 'lighting': 'q', 'race_guess': 'b', 'gender_guess': 'u', 'quality': '3', 'quality_eyes': '3', 'quality_mouth': '3', 'quality_ears': '3', 'quality_hair': '3', 'quality_neck': '3', 'facial_hair': '0.0', 'notes': None, 'race_common': 'black', 'gender_common': 'man'}",15,"['50R', '00C']","['C', 'U']",black,70,old,50R,C,"['00C', '50R']","[0, 50]",,,,,,,,,,,,,,,,,,6267206b1871ea3358531c84,6266e20a583caa8581feb914,6266d12bc803262aae0e8de2,,,,,,,,,,,,,,,,,,,,
10055,6267243206b19921fe99d7e3,Chrome,,main_task,1.0,1.0,chris,"4/25/2022, 4:44:02 PM",ubkhnf1vvemlu6jd18rk,0.0-198.0,pilot_prolific_test_typicals,,,,,,,,5674.0,../stimuli/version1_gray_lm/id029_50R_D.png,837702.0,0.0,213.0,35.0,retrieval,,,,,,,,,,,,,,,,,,,,,,,109,typical,woman,029,"{'muct_id': '39', 'lighting': 'r', 'race_guess': 'w', 'gender_guess': 'w', 'quality': '3', 'quality_eyes': '3', 'quality_mouth': '3', 'quality_ears': '3', 'quality_hair': '3', 'quality_neck': '3', 'facial_hair': '0.0', 'notes': 'earrings hair', 'race_common': 'white', 'gender_common': 'woman'}",11,"['25R', '00C']","['D', 'C']",white,60,old,50R,D,"['25R', '50R']","[25, 50]",,,,,,,,,,,,,,,,,,6267206b1871ea3358531c84,6266e20a583caa8581feb914,6266d12bc803262aae0e8de2,,,,,,,,,,,,,,,,,,,,
10056,6267243b06b19921fe99d7e4,Chrome,,main_task,1.0,1.0,chris,"4/25/2022, 4:44:11 PM",ubkhnf1vvemlu6jd18rk,0.0-200.0,pilot_prolific_test_typicals,,,,,,,,8337.299999952316,../stimuli/version1_gray_lm/id022_50L_D.png,846793.0,0.0,215.0,36.0,retrieval,,,,,,,,,,,,,,,,,,,,,,,126,typical,woman,022,"{'muct_id': '26', 'lighting': 'q', 'race_guess': 'b', 'gender_guess': 'w', 'quality': '3', 'quality_eyes': '3', 'quality_mouth': '3', 'quality_ears': '3', 'quality_hair': '3', 'quality_neck': '3', 'facial_hair': '0.0', 'notes': 'earrings', 'race_common': 'black', 'gender_common': 'woman'}",25,"['25R', '25L']","['C', 'D']",black,57,old,50L,D,"['75L', '25L']","[-75, -25]",,,,,,,,,,,,,,,,,,6267206b1871ea3358531c84,6266e20a583caa8581feb914,6266d12bc803262aae0e8de2,,,,,,,,,,,,,,,,,,,,
10057,6267244006b19921fe99d7e5,Chrome,,main_task,0.0,1.0,chris,"4/25/2022, 4:44:16 PM",ubkhnf1vvemlu6jd18rk,0.0-202.0,pilot_prolific_test_typicals,,,,,,,,4476.700000047684,../stimuli/version1_gray_lm/id076_50R_D.png,851978.0,0.0,217.0,37.0,retrieval,,,,,,,,,,,,,,,,,,,,,,,153,typical,woman,076,"{'muct_id': '233', 'lighting': 'u', 'race_guess': 'w', 'gender_guess': 'w', 'quality': '3', 'quality_eyes': '3', 'quality_mouth': '3', 'quality_ears': '3', 'quality_hair': '3', 'quality_neck': '3', 'facial_hair': '0.0', 'notes': 'earrings', 'race_common': 'white', 'gender_common': 'woman'}",38,"['50R', '25L']","['U', 'D']",white,41,old,50R,D,"['00C', '75R']","[0, 75]",,,,,,,,,,,,,,,,,,6267206b1871ea3358531c84,6266e20a583caa8581feb914,6266d12bc803262aae0e8de2,,,,,,,,,,,,,,,,,,,,
10058,6267244606b19921fe99d7e6,Chrome,,main_task,1.0,0.0,chris,"4/25/2022, 4:44:21 PM",ubkhnf1vvemlu6jd18rk,0.0-204.0,pilot_prolific_test_typicals,,,,,,,,5009.5,../stimuli/version1_gray_lm/id004_00C_U.png,857622.0,0.0,219.0,38.0,retrieval,,,,,,,,,,,,,,,,,,,,,,,,,,004,"{'muct_id': '4', 'lighting': 'q', 'race_guess': 'b', 'gender_guess': 'm', 'quality': '3', 'quality_eyes': '3', 'quality_mouth': '3', 'quality_ears': '3', 'quality_hair': '3', 'quality_neck': '3', 'facial_hair': '2.0', 'notes': None, 'race_common': 'black', 'gender_common': 'man'}",,,,black,45,new,00C,U,,,,,,,,,,,,,,,,,,,,6267206b1871ea3358531c84,6266e20a583caa8581feb914,6266d12bc803262aae0e8de2,,,,,,,,,,,,,,,,,,,,
10059,6267244a06b19921fe99d7e7,Chrome,,main_task,0.0,1.0,chris,"4/25/2022, 4:44:26 PM",ubkhnf1vvemlu6jd18rk,0.0-206.0,pilot_prolific_test_typicals,,,,,,,,3936.2000000476837,../stimuli/version1_gray_lm/id020_25L_C.png,862369.0,0.0,221.0,39.0,retrieval,,,,,,,,,,,,,,,,,,,,,,,127,typical,woman,020,"{'muct_id': '24', 'lighting': 'q', 'race_guess': 'b', 'gender_guess': 'w', 'quality': '3', 'quality_eyes': '3', 'quality_mouth': '3', 'quality_ears': '3', 'quality_hair': '3', 'quality_neck': '3', 'facial_hair': '0.0', 'notes': None, 'race_common': 'black', 'gender_common': 'woman'}",27,"['25L', '00C']","['C', 'U']",black,46,old,25L,C,"['00C', '25L']","[0, -25]",,,,,,,,,,,,,,,,,,6267206b1871ea3358531c84,6266e20a583caa8581feb914,6266d12bc803262aae0e8de2,,,,,,,,,,,,,,,,,,,,
10060,6267245006b19921fe99d7e8,Chrome,,main_task,0.0,0.0,chris,"4/25/2022, 4:44:31 PM",ubkhnf1vvemlu6jd18rk,0.0-208.0,pilot_prolific_test_typicals,,,,,,,,4395.099999904633,../stimuli/version1_gray_lm/id074_00C_C.png,867432.0,0.0,223.0,40.0,retrieval,,,,,,,,,,,,,,,,,,,,,,,,,,074,"{'muct_id': '229', 'lighting': 't', 'race_guess': 'w', 'gender_guess': 'm', 'quality': '3', 'quality_eyes': '3', 'quality_mouth': '3', 'quality_ears': '3', 'quality_hair': '3', 'quality_neck': '3', 'facial_hair': '2.0', 'notes': 'mouth', 'race_common': 'white', 'gender_common': 'man'}",,,,white,67,new,00C,C,,,,,,,,,,,,,,,,,,,,6267206b1871ea3358531c84,6266e20a583caa8581feb914,6266d12bc803262aae0e8de2,,,,,,,,,,,,,,,,,,,,
10061,6267245b06b19921fe99d7e9,Chrome,,main_task,0.0,0.0,chris,"4/25/2022, 4:44:43 PM",ubkhnf1vvemlu6jd18rk,0.0-210.0,pilot_prolific_test_typicals,,,,,,,,11288.599999904633,../stimuli/version1_gray_lm/id030_00C_D.png,879329.0,0.0,225.0,41.0,retrieval,,,,,,,,,,,,,,,,,,,,,,,,,,030,"{'muct_id': '41', 'lighting': 'r', 'race_guess': 'b', 'gender_guess': 'm', 'quality': '3', 'quality_eyes': '3', 'quality_mouth': '3', 'quality_ears': '3', 'quality_hair': '3', 'quality_neck': '3', 'facial_hair': '0.0', 'notes': None, 'race_common': 'black', 'gender_common': 'man'}",,,,black,55,new,00C,D,,,,,,,,,,,,,,,,,,,,6267206b1871ea3358531c84,6266e20a583caa8581feb914,6266d12bc803262aae0e8de2,,,,,,,,,,,,,,,,,,,,
10062,6267246106b19921fe99d7ea,Chrome,,main_task,1.0,1.0,chris,"4/25/2022, 4:44:49 PM",ubkhnf1vvemlu6jd18rk,0.0-212.0,pilot_prolific_test_typicals,,,,,,,,4898.400000095367,../stimuli/version1_gray_lm/id085_50R_D.png,884989.0,0.0,227.0,42.0,retrieval,,,,,,,,,,,,,,,,,,,,,,,137,typical,man,085,"{'muct_id': '249', 'lighting': 't', 'race_guess': 'b', 'gender_guess': 'w', 'quality': '2', 'quality_eyes': '2', 'quality_mouth': '3', 'quality_ears': '3', 'quality_hair': '3', 'quality_neck': '3', 'facial_hair': '0.0', 'notes': None, 'race_common': 'black', 'gender_common': 'man'}",39,"['00C', '50R']","['C', 'D']",black,56,old,50R,D,"['50R', '00C']","[50, 0]",,,,,,,,,,,,,,,,,,6267206b1871ea3358531c84,6266e20a583caa8581feb914,6266d12bc803262aae0e8de2,,,,,,,,,,,,,,,,,,,,
10063,6267246706b19921fe99d7eb,Chrome,,main_task,0.0,1.0,chris,"4/25/2022, 4:44:55 PM",ubkhnf1vvemlu6jd18rk,0.0-214.0,pilot_prolific_test_typicals,,,,,,,,4896.5,../stimuli/version1_gray_lm/id064_50R_C.png,890756.0,0.0,229.0,43.0,retrieval,,,,,,,,,,,,,,,,,,,,,,,113,typical,man,064,"{'muct_id': '204', 'lighting': 't', 'race_guess': 'b', 'gender_guess': 'm', 'quality': '3', 'quality_eyes': '3', 'quality_mouth': '3', 'quality_ears': '3', 'quality_hair': '3', 'quality_neck': '3', 'facial_hair': '1.0', 'notes': None, 'race_common': 'black', 'gender_common': 'man'}",10,"['25L', '50R']","['U', 'C']",black,42,old,50R,C,"['75R', '00C']","[75, 0]",,,,,,,,,,,,,,,,,,6267206b1871ea3358531c84,6266e20a583caa8581feb914,6266d12bc803262aae0e8de2,,,,,,,,,,,,,,,,,,,,
10064,6267246f06b19921fe99d7ec,Chrome,,main_task,0.0,0.0,chris,"4/25/2022, 4:45:02 PM",ubkhnf1vvemlu6jd18rk,0.0-216.0,pilot_prolific_test_typicals,,,,,,,,6937.599999904633,../stimuli/version1_gray_lm/id068_25L_D.png,898518.0,0.0,231.0,44.0,retrieval,,,,,,,,,,,,,,,,,,,,,,,,,,068,"{'muct_id': '213', 'lighting': 'u', 'race_guess': 'b', 'gender_guess': 'w', 'quality': '3', 'quality_eyes': '3', 'quality_mouth': '3', 'quality_ears': '3', 'quality_hair': '3', 'quality_neck': '3', 'facial_hair': '0.0', 'notes': None, 'race_common': 'black', 'gender_common': 'woman'}",,,,black,55,new,25L,D,,,,,,,,,,,,,,,,,,,,6267206b1871ea3358531c84,6266e20a583caa8581feb914,6266d12bc803262aae0e8de2,,,,,,,,,,,,,,,,,,,,
10065,6267247506b19921fe99d7ed,Chrome,,main_task,0.0,0.0,chris,"4/25/2022, 4:45:09 PM",ubkhnf1vvemlu6jd18rk,0.0-218.0,pilot_prolific_test_typicals,,,,,,,,5550.0,../stimuli/version1_gray_lm/id039_50L_D.png,904702.0,0.0,233.0,45.0,retrieval,,,,,,,,,,,,,,,,,,,,,,,,,,039,"{'muct_id': '52', 'lighting': 'q', 'race_guess': 'w', 'gender_guess': 'm', 'quality': '3', 'quality_eyes': '3', 'quality_mouth': '3', 'quality_ears': '3', 'quality_hair': '3', 'quality_neck': '3', 'facial_hair': '0.0', 'notes': None, 'race_common': 'white', 'gender_common': 'man'}",,,,white,55,new,50L,D,,,,,,,,,,,,,,,,,,,,6267206b1871ea3358531c84,6266e20a583caa8581feb914,6266d12bc803262aae0e8de2,,,,,,,,,,,,,,,,,,,,
10066,6267247906b19921fe99d7ee,Chrome,,main_task,1.0,1.0,chris,"4/25/2022, 4:45:13 PM",ubkhnf1vvemlu6jd18rk,0.0-220.0,pilot_prolific_test_typicals,,,,,,,,3659.0,../stimuli/version1_gray_lm/id083_50L_U.png,909236.0,0.0,235.0,46.0,retrieval,,,,,,,,,,,,,,,,,,,,,,,124,typical,man,083,"{'muct_id': '243', 'lighting': 'v', 'race_guess': 'b', 'gender_guess': 'm', 'quality': '3', 'quality_eyes': '3', 'quality_mouth': '3', 'quality_ears': '3', 'quality_hair': '3', 'quality_neck': '3', 'facial_hair': '0.0', 'notes': None, 'race_common': 'black', 'gender_common': 'man'}",21,"['25L', '00C']","['U', 'D']",black,55,old,50L,U,"['25L', '50L']","[-25, -50]",,,,,,,,,,,,,,,,,,6267206b1871ea3358531c84,6266e20a583caa8581feb914,6266d12bc803262aae0e8de2,,,,,,,,,,,,,,,,,,,,
10067,6267247f06b19921fe99d7ef,Chrome,,main_task,1.0,1.0,chris,"4/25/2022, 4:45:19 PM",ubkhnf1vvemlu6jd18rk,0.0-222.0,pilot_prolific_test_typicals,,,,,,,,5379.799999952316,../stimuli/version1_gray_lm/id041_00C_C.png,915262.0,0.0,237.0,47.0,retrieval,,,,,,,,,,,,,,,,,,,,,,,145,typical,man,041,"{'muct_id': '56', 'lighting': 'q', 'race_guess': 'w', 'gender_guess': 'm', 'quality': '3', 'quality_eyes': '3', 'quality_mouth': '3', 'quality_ears': '3', 'quality_hair': '3', 'quality_neck': '3', 'facial_hair': '0.0', 'notes': None, 'race_common': 'white', 'gender_common': 'man'}",24,"['50R', '25L']","['D', 'C']",white,61,old,00C,C,"['50L', '25R']","[-50, 25]",,,,,,,,,,,,,,,,,,6267206b1871ea3358531c84,6266e20a583caa8581feb914,6266d12bc803262aae0e8de2,,,,,,,,,,,,,,,,,,,,
10068,6267248406b19921fe99d7f0,Chrome,,main_task,0.0,1.0,chris,"4/25/2022, 4:45:24 PM",ubkhnf1vvemlu6jd18rk,0.0-224.0,pilot_prolific_test_typicals,,,,,,,,4153.200000047684,../stimuli/version1_gray_lm/id003_50R_D.png,920030.0,0.0,239.0,48.0,retrieval,,,,,,,,,,,,,,,,,,,,,,,141,typical,woman,003,"{'muct_id': '3', 'lighting': 's', 'race_guess': 'i', 'gender_guess': 'w', 'quality': '2', 'quality_eyes': '3', 'quality_mouth': '3', 'quality_ears': '3', 'quality_hair': '2', 'quality_neck': '3', 'facial_hair': '0.0', 'notes': 'hair', 'race_common': 'white', 'gender_common': 'woman'}",20,"['25L', '00C']","['C', 'D']",white,45,old,50R,D,"['75R', '50R']","[75, 50]",,,,,,,,,,,,,,,,,,6267206b1871ea3358531c84,6266e20a583caa8581feb914,6266d12bc803262aae0e8de2,,,,,,,,,,,,,,,,,,,,
