,_id,browser,collection,database,datetime,experiment_id,id,internal_node_id,iteration,response,response_feedback,response_gender,response_gender_sure,response_race,response_race_sure,rt,session_id,stimulus,study_id,subject_id,tilt_LR,tilt_UD,time_elapsed,trial_index,trial_number,trial_type
0,6226dfcd7c157e331e933f8d,Chrome,classification_task,faces,"3/7/2022, 11:44:57 PM",7szyw85zngbw6jvgk57d,010,0.0-1.0,single_subject_test,"{'race5': 'latinx', 'race_sure': '53', 'gender1': 'man', 'gender_sure': '100', 'feedback': ''}",,"['man', '100']",100,"['latinx', '53']",53,27266.5,6226dee25ca53e274425ae6e,id010_25R_D.png,6226dcede191b823f306f4d6,5f47f2a14aac571403cbb192,25R,D,56550.0,1.0,0.0,survey-html-form
1,6226dfde7c157e331e933f8e,Chrome,classification_task,faces,"3/7/2022, 11:45:14 PM",7szyw85zngbw6jvgk57d,040,0.0-2.0,single_subject_test,"{'race1': 'black', 'race_sure': '47', 'gender1': 'man', 'gender_sure': '100', 'feedback': ''}",,"['man', '100']",100,"['black', '47']",47,16557.300000190735,6226dee25ca53e274425ae6e,id040_50L_U.png,6226dcede191b823f306f4d6,5f47f2a14aac571403cbb192,50L,U,73121.0,2.0,0.0,survey-html-form
2,6226dfef7c157e331e933f8f,Chrome,classification_task,faces,"3/7/2022, 11:45:31 PM",7szyw85zngbw6jvgk57d,095,0.0-3.0,single_subject_test,"{'race5': 'latinx', 'race_sure': '56', 'gender1': 'man', 'gender_sure': '100', 'feedback': ''}",,"['man', '100']",100,"['latinx', '56']",56,17488.200000047684,6226dee25ca53e274425ae6e,id095_25L_D.png,6226dcede191b823f306f4d6,5f47f2a14aac571403cbb192,25L,D,90611.0,3.0,0.0,survey-html-form
3,6226e00b7c157e331e933f90,Chrome,classification_task,faces,"3/7/2022, 11:45:58 PM",7szyw85zngbw6jvgk57d,139,0.0-4.0,single_subject_test,"{'race1': 'black', 'race_sure': '100', 'gender1': 'man', 'gender_sure': '81', 'feedback': ''}",,"['man', '81']",81,"['black', '100']",100,27429.200000047684,6226dee25ca53e274425ae6e,id139_00C_C.png,6226dcede191b823f306f4d6,5f47f2a14aac571403cbb192,00C,C,118043.0,4.0,0.0,survey-html-form
4,6226e01b7c157e331e933f91,Chrome,classification_task,faces,"3/7/2022, 11:46:14 PM",7szyw85zngbw6jvgk57d,027,0.0-5.0,single_subject_test,"{'race1': 'black', 'race_sure': '100', 'gender2': 'woman', 'gender_sure': '85', 'feedback': ''}",,"['woman', '85']",85,"['black', '100']",100,15827.299999952316,6226dee25ca53e274425ae6e,id027_00C_C.png,6226dcede191b823f306f4d6,5f47f2a14aac571403cbb192,00C,C,133873.0,5.0,0.0,survey-html-form
5,6226e02d7c157e331e933f92,Chrome,classification_task,faces,"3/7/2022, 11:46:33 PM",7szyw85zngbw6jvgk57d,137,0.0-6.0,single_subject_test,"{'race1': 'black', 'race_sure': '61', 'gender1': 'man', 'gender_sure': '80', 'feedback': ''}",,"['man', '80']",80,"['black', '61']",61,18486.700000047684,6226dee25ca53e274425ae6e,id137_25R_D.png,6226dcede191b823f306f4d6,5f47f2a14aac571403cbb192,25R,D,152361.0,6.0,0.0,survey-html-form
6,6226e03f7c157e331e933f93,Chrome,classification_task,faces,"3/7/2022, 11:46:50 PM",7szyw85zngbw6jvgk57d,128,0.0-7.0,single_subject_test,"{'race2': 'white', 'race_sure': '100', 'gender1': 'man', 'gender_sure': '100', 'feedback': ''}",,"['man', '100']",100,"['white', '100']",100,17688.89999985695,6226dee25ca53e274425ae6e,id128_50R_U.png,6226dcede191b823f306f4d6,5f47f2a14aac571403cbb192,50R,U,170051.0,7.0,0.0,survey-html-form
7,6226e04d7c157e331e933f94,Chrome,classification_task,faces,"3/7/2022, 11:47:05 PM",7szyw85zngbw6jvgk57d,013,0.0-8.0,single_subject_test,"{'race3': 'east_asian', 'race_sure': '98', 'gender2': 'woman', 'gender_sure': '100', 'feedback': ''}",,"['woman', '100']",100,"['east_asian', '98']",98,14068.5,6226dee25ca53e274425ae6e,id013_50L_D.png,6226dcede191b823f306f4d6,5f47f2a14aac571403cbb192,50L,D,184121.0,8.0,0.0,survey-html-form
8,6226e05f7c157e331e933f95,Chrome,classification_task,faces,"3/7/2022, 11:47:23 PM",7szyw85zngbw6jvgk57d,096,0.0-9.0,single_subject_test,"{'race2': 'white', 'race_sure': '53', 'gender1': 'man', 'gender_sure': '78', 'feedback': ''}",,"['man', '78']",78,"['white', '53']",53,18269.099999904633,6226dee25ca53e274425ae6e,id096_25R_C.png,6226dcede191b823f306f4d6,5f47f2a14aac571403cbb192,25R,C,202392.0,9.0,0.0,survey-html-form
9,6226e0697c157e331e933f96,Chrome,classification_task,faces,"3/7/2022, 11:47:32 PM",7szyw85zngbw6jvgk57d,064,0.0-10.0,single_subject_test,"{'race1': 'black', 'race_sure': '100', 'gender1': 'man', 'gender_sure': '100', 'feedback': ''}",,"['man', '100']",100,"['black', '100']",100,9636.100000143051,6226dee25ca53e274425ae6e,id064_25L_C.png,6226dcede191b823f306f4d6,5f47f2a14aac571403cbb192,25L,C,212031.0,10.0,0.0,survey-html-form
10,6226e0727c157e331e933f97,Chrome,classification_task,faces,"3/7/2022, 11:47:42 PM",7szyw85zngbw6jvgk57d,140,0.0-11.0,single_subject_test,"{'race1': 'black', 'race_sure': '100', 'gender2': 'woman', 'gender_sure': '100', 'feedback': ''}",,"['woman', '100']",100,"['black', '100']",100,9518.299999952316,6226dee25ca53e274425ae6e,id140_50R_C.png,6226dcede191b823f306f4d6,5f47f2a14aac571403cbb192,50R,C,221551.0,11.0,0.0,survey-html-form
11,6226e07e7c157e331e933f98,Chrome,classification_task,faces,"3/7/2022, 11:47:53 PM",7szyw85zngbw6jvgk57d,030,0.0-12.0,single_subject_test,"{'race3': 'east_asian', 'race_sure': '100', 'gender1': 'man', 'gender_sure': '100', 'feedback': ''}",,"['man', '100']",100,"['east_asian', '100']",100,11487.200000047684,6226dee25ca53e274425ae6e,id030_25L_C.png,6226dcede191b823f306f4d6,5f47f2a14aac571403cbb192,25L,C,233040.0,12.0,0.0,survey-html-form
12,6226e08c7c157e331e933f99,Chrome,classification_task,faces,"3/7/2022, 11:48:08 PM",7szyw85zngbw6jvgk57d,144,0.0-13.0,single_subject_test,"{'race1': 'black', 'race_sure': '100', 'gender2': 'woman', 'gender_sure': '100', 'feedback': ''}",,"['woman', '100']",100,"['black', '100']",100,14541.399999856949,6226dee25ca53e274425ae6e,id144_00C_D.png,6226dcede191b823f306f4d6,5f47f2a14aac571403cbb192,00C,D,247583.0,13.0,0.0,survey-html-form
13,6226e0967c157e331e933f9a,Chrome,classification_task,faces,"3/7/2022, 11:48:17 PM",7szyw85zngbw6jvgk57d,037,0.0-14.0,single_subject_test,"{'race5': 'latinx', 'race_sure': '100', 'gender1': 'man', 'gender_sure': '100', 'feedback': ''}",,"['man', '100']",100,"['latinx', '100']",100,9447.299999952316,6226dee25ca53e274425ae6e,id037_25L_U.png,6226dcede191b823f306f4d6,5f47f2a14aac571403cbb192,25L,U,257032.0,14.0,0.0,survey-html-form
14,6226e09d7c157e331e933f9b,Chrome,classification_task,faces,"3/7/2022, 11:48:25 PM",7szyw85zngbw6jvgk57d,028,0.0-15.0,single_subject_test,"{'race1': 'black', 'race_sure': '100', 'gender1': 'man', 'gender_sure': '100', 'feedback': ''}",,"['man', '100']",100,"['black', '100']",100,7462.800000190735,6226dee25ca53e274425ae6e,id028_50L_U.png,6226dcede191b823f306f4d6,5f47f2a14aac571403cbb192,50L,U,264497.0,15.0,0.0,survey-html-form
15,6226e0a77c157e331e933f9c,Chrome,classification_task,faces,"3/7/2022, 11:48:34 PM",7szyw85zngbw6jvgk57d,002,0.0-16.0,single_subject_test,"{'race2': 'white', 'race_sure': '100', 'gender1': 'man', 'gender_sure': '100', 'feedback': ''}",,"['man', '100']",100,"['white', '100']",100,9264.300000190735,6226dee25ca53e274425ae6e,id002_25R_D.png,6226dcede191b823f306f4d6,5f47f2a14aac571403cbb192,25R,D,273763.0,16.0,0.0,survey-html-form
16,6226e0af7c157e331e933f9d,Chrome,classification_task,faces,"3/7/2022, 11:48:43 PM",7szyw85zngbw6jvgk57d,014,0.0-17.0,single_subject_test,"{'race5': 'latinx', 'race_sure': '100', 'gender1': 'man', 'gender_sure': '100', 'feedback': ''}",,"['man', '100']",100,"['latinx', '100']",100,8453.5,6226dee25ca53e274425ae6e,id014_00C_D.png,6226dcede191b823f306f4d6,5f47f2a14aac571403cbb192,00C,D,282218.0,17.0,0.0,survey-html-form
17,6226e0b97c157e331e933f9e,Chrome,classification_task,faces,"3/7/2022, 11:48:52 PM",7szyw85zngbw6jvgk57d,114,0.0-18.0,single_subject_test,"{'race2': 'white', 'race_sure': '100', 'gender2': 'woman', 'gender_sure': '100', 'feedback': ''}",,"['woman', '100']",100,"['white', '100']",100,9834.399999856949,6226dee25ca53e274425ae6e,id114_00C_C.png,6226dcede191b823f306f4d6,5f47f2a14aac571403cbb192,00C,C,292054.0,18.0,0.0,survey-html-form
18,6226e0c17c157e331e933f9f,Chrome,classification_task,faces,"3/7/2022, 11:49:00 PM",7szyw85zngbw6jvgk57d,021,0.0-19.0,single_subject_test,"{'race1': 'black', 'race_sure': '100', 'gender1': 'man', 'gender_sure': '100', 'feedback': ''}",,"['man', '100']",100,"['black', '100']",100,7983.400000095367,6226dee25ca53e274425ae6e,id021_25R_C.png,6226dcede191b823f306f4d6,5f47f2a14aac571403cbb192,25R,C,300039.0,19.0,0.0,survey-html-form
19,6226e0c97c157e331e933fa0,Chrome,classification_task,faces,"3/7/2022, 11:49:08 PM",7szyw85zngbw6jvgk57d,131,0.0-20.0,single_subject_test,"{'race5': 'latinx', 'race_sure': '100', 'gender1': 'man', 'gender_sure': '100', 'feedback': ''}",,"['man', '100']",100,"['latinx', '100']",100,7694.0,6226dee25ca53e274425ae6e,id131_25R_U.png,6226dcede191b823f306f4d6,5f47f2a14aac571403cbb192,25R,U,307734.0,20.0,0.0,survey-html-form
20,6226f3907c157e331e933fa3,Chrome,classification_task,faces,"3/7/2022, 10:11:28 PM",vxb0mznw9jq85ct06qne,060,0.0-1.0,single_subject_test,"{'race4': 'south_asian', 'race_sure': '0', 'gender2': 'woman', 'gender_sure': '0', 'feedback': ''}",,"['woman', '0']",0,"['south_asian', '0']",0,9414.5,6226f30973bcdae380918bb6,id060_00C_U.png,6226dcede191b823f306f4d6,5cb60f1eefd4130001bbfdb7,00C,U,13258.0,1.0,0.0,survey-html-form
21,6226f3c77c157e331e933fa4,Chrome,classification_task,faces,"3/8/2022, 1:12:22 AM",5fryy1h1vscy70qc4av1,038,0.0-1.0,single_subject_test,"{'race5': 'latinx', 'race_sure': '0', 'gender1': 'man', 'gender_sure': '0', 'feedback': ''}",,"['man', '0']",0,"['latinx', '0']",0,11773.700000047684,6226f377eb75742ba461ad67,id038_50L_D.png,6226dcede191b823f306f4d6,611fef91a3800a9e7bfca495,50L,D,22289.0,1.0,0.0,survey-html-form
22,6226f3c77c157e331e933fa5,Chrome,classification_task,faces,"3/8/2022, 1:12:23 AM",yq2o5pfhbtvw64wpue71,026,0.0-1.0,single_subject_test,"{'race1': 'black', 'race_sure': '76', 'gender1': 'man', 'gender_sure': '73', 'feedback': ''}",,"['man', '73']",73,"['black', '76']",76,11948.399999976158,6226f36358321e3be6496dbf,id026_25R_U.png,6226dcede191b823f306f4d6,56e6a66af6ed900006a5867c,25R,U,22916.0,1.0,0.0,survey-html-form
23,6226f3cc7c157e331e933fa6,Chrome,classification_task,faces,"3/8/2022, 1:12:28 AM",5fryy1h1vscy70qc4av1,004,0.0-2.0,single_subject_test,"{'race1': 'black', 'race_sure': '0', 'gender1': 'man', 'gender_sure': '0', 'feedback': ''}",,"['man', '0']",0,"['black', '0']",0,5449.099999904633,6226f377eb75742ba461ad67,id004_25L_U.png,6226dcede191b823f306f4d6,611fef91a3800a9e7bfca495,25L,U,27763.0,2.0,0.0,survey-html-form
24,6226f3cf7c157e331e933fa7,Chrome,classification_task,faces,"3/8/2022, 1:12:31 AM",yq2o5pfhbtvw64wpue71,036,0.0-2.0,single_subject_test,"{'race1': 'black', 'race_sure': '87', 'gender1': 'man', 'gender_sure': '46', 'feedback': ''}",,"['man', '46']",46,"['black', '87']",87,8319.100000023842,6226f36358321e3be6496dbf,id036_25L_U.png,6226dcede191b823f306f4d6,56e6a66af6ed900006a5867c,25L,U,31255.0,2.0,0.0,survey-html-form
25,6226f3d37c157e331e933fa8,Chrome,classification_task,faces,"3/8/2022, 1:12:34 AM",5fryy1h1vscy70qc4av1,073,0.0-3.0,single_subject_test,"{'race2': 'white', 'race_sure': '0', 'gender1': 'man', 'gender_sure': '0', 'feedback': ''}",,"['man', '0']",0,"['white', '0']",0,6543.799999952316,6226f377eb75742ba461ad67,id073_25R_D.png,6226dcede191b823f306f4d6,611fef91a3800a9e7bfca495,25R,D,34311.0,3.0,0.0,survey-html-form
26,6226f3e47c157e331e933fa9,Chrome,classification_task,faces,"3/8/2022, 1:12:52 AM",5fryy1h1vscy70qc4av1,094,0.0-1.0,single_subject_test,"{'race2': 'white', 'race_sure': '0', 'gender1': 'man', 'gender_sure': '0', 'feedback': ''}",,"['man', '0']",0,"['white', '0']",0,4403.700000047684,6226f377eb75742ba461ad67,id094_00C_D.png,6226dcede191b823f306f4d6,611fef91a3800a9e7bfca495,00C,D,14434.0,1.0,0.0,survey-html-form
27,6226f3e97c157e331e933faa,Chrome,classification_task,faces,"3/8/2022, 1:12:56 AM",5fryy1h1vscy70qc4av1,145,0.0-2.0,single_subject_test,"{'race2': 'white', 'race_sure': '0', 'gender1': 'man', 'gender_sure': '0', 'feedback': ''}",,"['man', '0']",0,"['white', '0']",0,4303.200000047684,6226f377eb75742ba461ad67,id145_50R_C.png,6226dcede191b823f306f4d6,611fef91a3800a9e7bfca495,50R,C,18739.0,2.0,0.0,survey-html-form
28,6226f4167c157e331e933fab,Chrome,classification_task,faces,"3/8/2022, 1:13:42 AM",9uvoq0vd95qjj117eay1,135,0.0-1.0,single_subject_test,"{'race1': 'black', 'race_sure': '77', 'gender2': 'woman', 'gender_sure': '88', 'feedback': ''}",,"['woman', '88']",88,"['black', '77']",77,12434.800000011921,6226f36358321e3be6496dbf,id135_00C_D.png,6226dcede191b823f306f4d6,56e6a66af6ed900006a5867c,00C,D,20177.0,1.0,0.0,survey-html-form
29,6226f41c7c157e331e933fac,Chrome,classification_task,faces,"3/8/2022, 12:13:48 AM",3hk5myvvb0kr49x9v7ae,032,0.0-1.0,single_subject_test,"{'race2': 'white', 'race_sure': '0', 'gender1': 'man', 'gender_sure': '87', 'feedback': ''}",,"['man', '87']",87,"['white', '0']",0,9627.699999809265,6226f3e8079f5d44c7b6f15e,id032_50L_C.png,6226dcede191b823f306f4d6,5f44c445cfb0a801244f652f,50L,C,26159.0,1.0,0.0,survey-html-form
30,6226f4247c157e331e933fad,Chrome,classification_task,faces,"3/8/2022, 12:13:56 AM",3hk5myvvb0kr49x9v7ae,052,0.0-2.0,single_subject_test,"{'race2': 'white', 'race_sure': '0', 'gender1': 'man', 'gender_sure': '86', 'feedback': ''}",,"['man', '86']",86,"['white', '0']",0,7281.900000095367,6226f3e8079f5d44c7b6f15e,id052_50R_U.png,6226dcede191b823f306f4d6,5f44c445cfb0a801244f652f,50R,U,33461.0,2.0,0.0,survey-html-form
31,6226f4347c157e331e933fae,Chrome,classification_task,faces,"3/8/2022, 12:14:12 AM",3hk5myvvb0kr49x9v7ae,022,0.0-1.0,single_subject_test,"{'race1': 'black', 'race_sure': '0', 'gender1': 'man', 'gender_sure': '38', 'feedback': ''}",,"['man', '38']",38,"['black', '0']",0,6204.5,6226f3e8079f5d44c7b6f15e,id022_50L_D.png,6226dcede191b823f306f4d6,5f44c445cfb0a801244f652f,50L,D,14494.0,1.0,0.0,survey-html-form
32,6226f4537c157e331e933faf,Chrome,classification_task,faces,"3/8/2022, 1:14:42 AM",9uvoq0vd95qjj117eay1,109,0.0-1.0,single_subject_test,"{'race5': 'latinx', 'race_sure': '71', 'gender2': 'woman', 'gender_sure': '76', 'feedback': ''}",,"['woman', '76']",76,"['latinx', '71']",71,7185.100000023842,6226f36358321e3be6496dbf,id109_00C_U.png,6226dcede191b823f306f4d6,56e6a66af6ed900006a5867c,00C,U,10594.0,1.0,0.0,survey-html-form
33,6226f4537c157e331e933fb0,Chrome,classification_task,faces,"3/8/2022, 12:14:43 AM",j0yvscessxyoj38u4bm8,109,0.0-1.0,single_subject_test,"{'race2': 'white', 'race_sure': '0', 'gender2': 'woman', 'gender_sure': '54', 'feedback': ''}",,"['woman', '54']",54,"['white', '0']",0,4588.599999904633,6226f3e8079f5d44c7b6f15e,id109_25L_D.png,6226dcede191b823f306f4d6,5f44c445cfb0a801244f652f,25L,D,10681.0,1.0,0.0,survey-html-form
34,6226f4677c157e331e933fb1,Chrome,classification_task,faces,"3/8/2022, 1:15:03 AM",9uvoq0vd95qjj117eay1,024,0.0-1.0,single_subject_test,"{'race1': 'black', 'race_sure': '53', 'gender1': 'man', 'gender2': 'woman', 'gender_sure': '54', 'feedback': ''}",,"['man', 'woman', '54']",54,"['black', '53']",53,5649.899999976158,6226f36358321e3be6496dbf,id024_50L_D.png,6226dcede191b823f306f4d6,56e6a66af6ed900006a5867c,50L,D,15776.0,1.0,0.0,survey-html-form
35,6226f4707c157e331e933fb2,Chrome,classification_task,faces,"3/8/2022, 1:15:12 AM",9uvoq0vd95qjj117eay1,039,0.0-2.0,single_subject_test,"{'race2': 'white', 'race_sure': '65', 'gender1': 'man', 'gender_sure': '75', 'feedback': ''}",,"['man', '75']",75,"['white', '65']",65,8805.900000035763,6226f36358321e3be6496dbf,id039_50L_C.png,6226dcede191b823f306f4d6,56e6a66af6ed900006a5867c,50L,C,24586.0,2.0,0.0,survey-html-form
36,6226f4737c157e331e933fb3,Chrome,classification_task,faces,"3/8/2022, 1:15:14 AM",rzxj6zkzyorrud5ygq01,057,0.0-1.0,single_subject_test,"{'race1': 'black', 'race5': 'latinx', 'race_sure': '0', 'gender1': 'man', 'gender_sure': '98', 'feedback': ''}",,"['man', '98']",98,"['black', 'latinx', '0']",0,17085.0,6226f44e34c00a828bb3fa2a,id057_00C_D.png,6226dcede191b823f306f4d6,5cf3f7364bcc6400019d71fa,00C,D,28102.0,1.0,0.0,survey-html-form
37,6226f4757c157e331e933fb4,Chrome,classification_task,faces,"3/8/2022, 1:15:17 AM",9uvoq0vd95qjj117eay1,104,0.0-3.0,single_subject_test,"{'race2': 'white', 'race_sure': '74', 'gender1': 'man', 'gender_sure': '89', 'feedback': ''}",,"['man', '89']",89,"['white', '74']",74,5030.5,6226f36358321e3be6496dbf,id104_25L_U.png,6226dcede191b823f306f4d6,56e6a66af6ed900006a5867c,25L,U,29619.0,3.0,0.0,survey-html-form
38,6226f4ab7c157e331e933fb5,Chrome,classification_task,faces,"3/8/2022, 1:16:10 AM",rzxj6zkzyorrud5ygq01,123,0.0-1.0,single_subject_test,"{'race2': 'white', 'race_sure': '62', 'gender2': 'woman', 'gender_sure': '69', 'feedback': ''}",,"['woman', '69']",69,"['white', '62']",62,9220.0,6226f44e34c00a828bb3fa2a,id123_50R_D.png,6226dcede191b823f306f4d6,5cf3f7364bcc6400019d71fa,50R,D,16398.0,1.0,0.0,survey-html-form
39,6226f4ac7c157e331e933fb6,Chrome,classification_task,faces,"3/8/2022, 1:16:12 AM",qg6eghk4y5grdd1odkt4,129,0.0-1.0,single_subject_test,"{'race1': 'black', 'race_sure': '0', 'gender1': 'man', 'gender_sure': '0', 'feedback': ''}",,"['man', '0']",0,"['black', '0']",0,6159.5,6226f4824f52686c62e6e4b7,id129_00C_D.png,6226dcede191b823f306f4d6,612eac9f6c232dc7efccc967,00C,D,17426.0,1.0,0.0,survey-html-form
40,6226f4b47c157e331e933fb7,Chrome,classification_task,faces,"3/8/2022, 1:16:19 AM",rzxj6zkzyorrud5ygq01,101,0.0-2.0,single_subject_test,"{'race2': 'white', 'race_sure': '74', 'gender2': 'woman', 'gender_sure': '73', 'feedback': ''}",,"['woman', '73']",73,"['white', '74']",74,8416.0,6226f44e34c00a828bb3fa2a,id101_50L_C.png,6226dcede191b823f306f4d6,5cf3f7364bcc6400019d71fa,50L,C,24822.0,2.0,0.0,survey-html-form
41,6226f4b47c157e331e933fb8,Chrome,classification_task,faces,"3/8/2022, 1:16:20 AM",qg6eghk4y5grdd1odkt4,105,0.0-2.0,single_subject_test,"{'race2': 'white', 'race_sure': '100', 'gender1': 'man', 'gender_sure': '100', 'feedback': ''}",,"['man', '100']",100,"['white', '100']",100,8190.900000095367,6226f4824f52686c62e6e4b7,id105_25L_U.png,6226dcede191b823f306f4d6,612eac9f6c232dc7efccc967,25L,U,25654.0,2.0,0.0,survey-html-form
42,6226f4b67c157e331e933fb9,Chrome,classification_task,faces,"3/8/2022, 1:16:20 AM",4fmeyhvot3co6mwtoo17,152,0.0-1.0,single_subject_test,"{'race2': 'white', 'race_sure': '0', 'gender2': 'woman', 'gender_sure': '0', 'feedback': ''}",,"['woman', '0']",0,"['white', '0']",0,9811.599999904633,6226f4336820da546da7dff9,id152_50R_D.png,6226dcede191b823f306f4d6,5a791168f49c9a0001f31061,50R,D,26919.0,1.0,0.0,survey-html-form
43,6226f4b87c157e331e933fba,Chrome,classification_task,faces,"3/8/2022, 12:16:24 AM",j0yvscessxyoj38u4bm8,018,0.0-1.0,single_subject_test,"{'race5': 'latinx', 'race_sure': '0', 'gender2': 'woman', 'gender_sure': '40', 'feedback': ''}",,"['woman', '40']",40,"['latinx', '0']",0,7284.10000038147,6226f3e8079f5d44c7b6f15e,id018_25L_D.png,6226dcede191b823f306f4d6,5f44c445cfb0a801244f652f,25L,D,28947.0,1.0,0.0,survey-html-form
44,6226f4bd7c157e331e933fbb,Chrome,classification_task,faces,"3/8/2022, 1:16:28 AM",rzxj6zkzyorrud5ygq01,148,0.0-3.0,single_subject_test,"{'race4': 'south_asian', 'race_sure': '78', 'gender2': 'woman', 'gender_sure': '79', 'feedback': ''}",,"['woman', '79']",79,"['south_asian', '78']",78,9758.0,6226f44e34c00a828bb3fa2a,id148_25L_U.png,6226dcede191b823f306f4d6,5cf3f7364bcc6400019d71fa,25L,U,34587.0,3.0,0.0,survey-html-form
45,6226f4bf7c157e331e933fbc,Chrome,classification_task,faces,"3/8/2022, 12:16:31 AM",j0yvscessxyoj38u4bm8,136,0.0-2.0,single_subject_test,"{'race1': 'black', 'race_sure': '0', 'gender2': 'woman', 'gender_sure': '39', 'feedback': ''}",,"['woman', '39']",39,"['black', '0']",0,7056.89999961853,6226f3e8079f5d44c7b6f15e,id136_50R_C.png,6226dcede191b823f306f4d6,5f44c445cfb0a801244f652f,50R,C,36007.0,2.0,0.0,survey-html-form
46,6226f4bf7c157e331e933fbd,Chrome,classification_task,faces,"3/8/2022, 1:16:30 AM",qg6eghk4y5grdd1odkt4,069,0.0-3.0,single_subject_test,"{'race5': 'latinx', 'race_sure': '36', 'gender2': 'woman', 'gender_sure': '100', 'feedback': ''}",,"['woman', '100']",100,"['latinx', '36']",36,10409.099999904633,6226f4824f52686c62e6e4b7,id069_00C_C.png,6226dcede191b823f306f4d6,612eac9f6c232dc7efccc967,00C,C,36066.0,3.0,0.0,survey-html-form
47,6226f4c57c157e331e933fbe,Chrome,classification_task,faces,"3/8/2022, 12:16:36 AM",j0yvscessxyoj38u4bm8,110,0.0-3.0,single_subject_test,"{'race1': 'black', 'race_sure': '0', 'gender2': 'woman', 'gender_sure': '52', 'feedback': ''}",,"['woman', '52']",52,"['black', '0']",0,5773.099999904633,6226f3e8079f5d44c7b6f15e,id110_50L_U.png,6226dcede191b823f306f4d6,5f44c445cfb0a801244f652f,50L,U,41784.0,3.0,0.0,survey-html-form
48,6226f4c67c157e331e933fbf,Chrome,classification_task,faces,"3/8/2022, 1:16:37 AM",rzxj6zkzyorrud5ygq01,074,0.0-4.0,single_subject_test,"{'race2': 'white', 'race_sure': '62', 'gender1': 'man', 'gender_sure': '95', 'feedback': ''}",,"['man', '95']",95,"['white', '62']",62,9094.0,6226f44e34c00a828bb3fa2a,id074_50R_U.png,6226dcede191b823f306f4d6,5cf3f7364bcc6400019d71fa,50R,U,43687.0,4.0,0.0,survey-html-form
49,6226f4c97c157e331e933fc0,Chrome,classification_task,faces,"3/8/2022, 12:16:41 AM",j0yvscessxyoj38u4bm8,053,0.0-4.0,single_subject_test,"{'race2': 'white', 'race_sure': '0', 'gender1': 'man', 'gender_sure': '79', 'feedback': ''}",,"['man', '79']",79,"['white', '0']",0,4222.900000095367,6226f3e8079f5d44c7b6f15e,id053_50R_C.png,6226dcede191b823f306f4d6,5f44c445cfb0a801244f652f,50R,C,46009.0,4.0,0.0,survey-html-form
50,6226f4cb7c157e331e933fc1,Chrome,classification_task,faces,"3/8/2022, 1:16:43 AM",qg6eghk4y5grdd1odkt4,017,0.0-4.0,single_subject_test,"{'race2': 'white', 'race_sure': '56', 'gender2': 'woman', 'gender_sure': '42', 'feedback': ''}",,"['woman', '42']",42,"['white', '56']",56,12211.599999904633,6226f4824f52686c62e6e4b7,id017_50L_C.png,6226dcede191b823f306f4d6,612eac9f6c232dc7efccc967,50L,C,48279.0,4.0,0.0,survey-html-form
51,6226f4cd7c157e331e933fc2,Chrome,classification_task,faces,"3/8/2022, 12:16:45 AM",j0yvscessxyoj38u4bm8,093,0.0-5.0,single_subject_test,"{'race2': 'white', 'race_sure': '0', 'gender1': 'man', 'gender_sure': '72', 'feedback': ''}",,"['man', '72']",72,"['white', '0']",0,4523.300000190735,6226f3e8079f5d44c7b6f15e,id093_25R_D.png,6226dcede191b823f306f4d6,5f44c445cfb0a801244f652f,25R,D,50535.0,5.0,0.0,survey-html-form
52,6226f4db7c157e331e933fc3,Chrome,classification_task,faces,"3/8/2022, 1:16:58 AM",qg6eghk4y5grdd1odkt4,044,0.0-1.0,single_subject_test,"{'race1': 'black', 'race2': 'white', 'race_sure': '0', 'gender1': 'man', 'gender_sure': '0', 'feedback': ''}",,"['man', '0']",0,"['black', 'white', '0']",0,5647.900000095367,6226f4824f52686c62e6e4b7,id044_00C_D.png,6226dcede191b823f306f4d6,612eac9f6c232dc7efccc967,00C,D,13218.0,1.0,0.0,survey-html-form
53,6226f4db7c157e331e933fc4,Chrome,classification_task,faces,"3/8/2022, 1:16:58 AM",rzxj6zkzyorrud5ygq01,083,0.0-1.0,single_subject_test,"{'race_sure': '65', 'gender1': 'man', 'gender_sure': '94', 'feedback': ''}",,"['man', '94']",94,['65'],65,9024.0,6226f44e34c00a828bb3fa2a,id083_50R_D.png,6226dcede191b823f306f4d6,5cf3f7364bcc6400019d71fa,50R,D,13786.0,1.0,0.0,survey-html-form
54,6226f4e37c157e331e933fc5,Chrome,classification_task,faces,"3/8/2022, 12:17:07 AM",j0yvscessxyoj38u4bm8,041,0.0-1.0,single_subject_test,"{'race2': 'white', 'race_sure': '0', 'gender1': 'man', 'gender_sure': '74', 'feedback': ''}",,"['man', '74']",74,"['white', '0']",0,6158.60000038147,6226f3e8079f5d44c7b6f15e,id041_00C_U.png,6226dcede191b823f306f4d6,5f44c445cfb0a801244f652f,00C,U,22019.0,1.0,0.0,survey-html-form
55,6226f4e47c157e331e933fc6,Chrome,classification_task,faces,"3/8/2022, 1:17:07 AM",rzxj6zkzyorrud5ygq01,108,0.0-2.0,single_subject_test,"{'race4': 'south_asian', 'race_sure': '54', 'gender1': 'man', 'gender_sure': '88', 'feedback': ''}",,"['man', '88']",88,"['south_asian', '54']",54,8664.0,6226f44e34c00a828bb3fa2a,id108_00C_D.png,6226dcede191b823f306f4d6,5cf3f7364bcc6400019d71fa,00C,D,22457.0,2.0,0.0,survey-html-form
56,6226f4e47c157e331e933fc7,Chrome,classification_task,faces,"3/8/2022, 1:17:08 AM",qg6eghk4y5grdd1odkt4,016,0.0-2.0,single_subject_test,"{'race4': 'south_asian', 'race_sure': '81', 'gender2': 'woman', 'gender_sure': '100', 'feedback': ''}",,"['woman', '100']",100,"['south_asian', '81']",81,9494.5,6226f4824f52686c62e6e4b7,id016_50R_U.png,6226dcede191b823f306f4d6,612eac9f6c232dc7efccc967,50R,U,22715.0,2.0,0.0,survey-html-form
57,6226f4e47c157e331e933fc8,Chrome,classification_task,faces,"3/8/2022, 1:17:06 AM",4fmeyhvot3co6mwtoo17,055,0.0-1.0,single_subject_test,"{'race1': 'black', 'race_sure': '100', 'gender1': 'man', 'gender_sure': '100', 'feedback': ''}",,"['man', '100']",100,"['black', '100']",100,14198.299999952316,6226f4336820da546da7dff9,id055_25R_U.png,6226dcede191b823f306f4d6,5a791168f49c9a0001f31061,25R,U,22916.0,1.0,0.0,survey-html-form
58,6226f4ea7c157e331e933fc9,Chrome,classification_task,faces,"3/8/2022, 12:17:14 AM",j0yvscessxyoj38u4bm8,143,0.0-2.0,single_subject_test,"{'race2': 'white', 'race_sure': '0', 'gender1': 'man', 'gender_sure': '52', 'feedback': ''}",,"['man', '52']",52,"['white', '0']",0,6384.099999904633,6226f3e8079f5d44c7b6f15e,id143_25L_C.png,6226dcede191b823f306f4d6,5f44c445cfb0a801244f652f,25L,C,28407.0,2.0,0.0,survey-html-form
59,6226f4ed7c157e331e933fca,Chrome,classification_task,faces,"3/8/2022, 1:17:17 AM",qg6eghk4y5grdd1odkt4,151,0.0-3.0,single_subject_test,"{'race2': 'white', 'race_sure': '49', 'gender2': 'woman', 'gender_sure': '52', 'feedback': ''}",,"['woman', '52']",52,"['white', '49']",49,9208.700000286102,6226f4824f52686c62e6e4b7,id151_00C_U.png,6226dcede191b823f306f4d6,612eac9f6c232dc7efccc967,00C,U,31926.0,3.0,0.0,survey-html-form
60,6226f4ee7c157e331e933fcb,Chrome,classification_task,faces,"3/8/2022, 12:17:18 AM",j0yvscessxyoj38u4bm8,115,0.0-3.0,single_subject_test,"{'race2': 'white', 'race_sure': '0', 'gender1': 'man', 'gender_sure': '46', 'feedback': ''}",,"['man', '46']",46,"['white', '0']",0,4537.599999904633,6226f3e8079f5d44c7b6f15e,id115_25R_C.png,6226dcede191b823f306f4d6,5f44c445cfb0a801244f652f,25R,C,32947.0,3.0,0.0,survey-html-form
61,6226f4f17c157e331e933fcc,Chrome,classification_task,faces,"3/8/2022, 1:17:19 AM",4fmeyhvot3co6mwtoo17,117,0.0-2.0,single_subject_test,"{'race1': 'black', 'race_sure': '100', 'gender1': 'man', 'gender_sure': '100', 'feedback': ''}",,"['man', '100']",100,"['black', '100']",100,12240.100000143051,6226f4336820da546da7dff9,id117_50R_D.png,6226dcede191b823f306f4d6,5a791168f49c9a0001f31061,50R,D,35160.0,2.0,0.0,survey-html-form
62,6226f4f37c157e331e933fcd,Chrome,classification_task,faces,"3/8/2022, 12:17:23 AM",j0yvscessxyoj38u4bm8,084,0.0-4.0,single_subject_test,"{'race2': 'white', 'race_sure': '0', 'gender2': 'woman', 'gender_sure': '74', 'feedback': ''}",,"['woman', '74']",74,"['white', '0']",0,4471.900000095367,6226f3e8079f5d44c7b6f15e,id084_00C_D.png,6226dcede191b823f306f4d6,5f44c445cfb0a801244f652f,00C,D,37423.0,4.0,0.0,survey-html-form
63,6226f5067c157e331e933fce,Chrome,classification_task,faces,"3/8/2022, 1:17:40 AM",rzxj6zkzyorrud5ygq01,058,0.0-1.0,single_subject_test,"{'race3': 'east_asian', 'race_sure': '73', 'gender1': 'man', 'gender_sure': '97', 'feedback': ''}",,"['man', '97']",97,"['east_asian', '73']",73,11288.0,6226f44e34c00a828bb3fa2a,id058_50R_D.png,6226dcede191b823f306f4d6,5cf3f7364bcc6400019d71fa,50R,D,16456.0,1.0,0.0,survey-html-form
64,6226f5157c157e331e933fcf,Chrome,classification_task,faces,"3/7/2022, 10:17:59 PM",uoyjy2l87f10lq1eb04s,015,0.0-1.0,single_subject_test,"{'race5': 'latinx', 'race_sure': '0', 'gender1': 'man', 'gender_sure': '0', 'feedback': ''}",,"['man', '0']",0,"['latinx', '0']",0,7862.400000002235,6226f46da1a7fd3354a536a4,id015_25R_U.png,6226dcede191b823f306f4d6,5fcdbe153ce79b287e15344e,25R,U,14045.0,1.0,0.0,survey-html-form
65,6226f5177c157e331e933fd0,Chrome,classification_task,faces,"3/8/2022, 1:17:58 AM",rzxj6zkzyorrud5ygq01,127,0.0-1.0,single_subject_test,"{'race4': 'south_asian', 'race_sure': '47', 'gender2': 'woman', 'gender_sure': '69', 'feedback': ''}",,"['woman', '69']",69,"['south_asian', '47']",47,9697.0,6226f44e34c00a828bb3fa2a,id127_50R_C.png,6226dcede191b823f306f4d6,5cf3f7364bcc6400019d71fa,50R,C,16061.0,1.0,0.0,survey-html-form
66,6226f5177c157e331e933fd1,Chrome,classification_task,faces,"3/8/2022, 12:17:59 AM",j0yvscessxyoj38u4bm8,130,0.0-1.0,single_subject_test,"{'race5': 'latinx', 'race_sure': '0', 'gender2': 'woman', 'gender_sure': '0', 'feedback': ''}",,"['woman', '0']",0,"['latinx', '0']",0,4655.300000190735,6226f3e8079f5d44c7b6f15e,id130_50L_U.png,6226dcede191b823f306f4d6,5f44c445cfb0a801244f652f,50L,U,16164.0,1.0,0.0,survey-html-form
67,6226f51b7c157e331e933fd2,Chrome,classification_task,faces,"3/8/2022, 12:18:03 AM",j0yvscessxyoj38u4bm8,111,0.0-2.0,single_subject_test,"{'race1': 'black', 'race_sure': '0', 'gender2': 'woman', 'gender_sure': '0', 'feedback': ''}",,"['woman', '0']",0,"['black', '0']",0,3903.0,6226f3e8079f5d44c7b6f15e,id111_25R_C.png,6226dcede191b823f306f4d6,5f44c445cfb0a801244f652f,25R,C,20070.0,2.0,0.0,survey-html-form
68,6226f51d7c157e331e933fd3,Chrome,classification_task,faces,"3/7/2022, 10:18:07 PM",uoyjy2l87f10lq1eb04s,126,0.0-2.0,single_subject_test,"{'race1': 'black', 'race_sure': '0', 'gender2': 'woman', 'gender_sure': '0', 'feedback': ''}",,"['woman', '0']",0,"['black', '0']",0,7986.800000000745,6226f46da1a7fd3354a536a4,id126_50L_U.png,6226dcede191b823f306f4d6,5fcdbe153ce79b287e15344e,50L,U,22108.0,2.0,0.0,survey-html-form
69,6226f51f7c157e331e933fd4,Chrome,classification_task,faces,"3/8/2022, 1:18:06 AM",rzxj6zkzyorrud5ygq01,147,0.0-2.0,single_subject_test,"{'race5': 'latinx', 'race_sure': '34', 'gender1': 'man', 'gender_sure': '100', 'feedback': ''}",,"['man', '100']",100,"['latinx', '34']",34,8791.0,6226f44e34c00a828bb3fa2a,id147_00C_D.png,6226dcede191b823f306f4d6,5cf3f7364bcc6400019d71fa,00C,D,24857.0,2.0,0.0,survey-html-form
70,6226f5207c157e331e933fd5,Chrome,classification_task,faces,"3/8/2022, 12:18:08 AM",j0yvscessxyoj38u4bm8,132,0.0-3.0,single_subject_test,"{'race3': 'east_asian', 'race_sure': '0', 'gender1': 'man', 'gender_sure': '13', 'feedback': ''}",,"['man', '13']",13,"['east_asian', '0']",0,5132.200000286102,6226f3e8079f5d44c7b6f15e,id132_00C_D.png,6226dcede191b823f306f4d6,5f44c445cfb0a801244f652f,00C,D,25205.0,3.0,0.0,survey-html-form
71,6226f5247c157e331e933fd6,Chrome,classification_task,faces,"3/8/2022, 12:18:12 AM",j0yvscessxyoj38u4bm8,154,0.0-4.0,single_subject_test,"{'race1': 'black', 'race_sure': '0', 'gender2': 'woman', 'gender_sure': '27', 'feedback': ''}",,"['woman', '27']",27,"['black', '0']",0,4372.699999809265,6226f3e8079f5d44c7b6f15e,id154_50L_U.png,6226dcede191b823f306f4d6,5f44c445cfb0a801244f652f,50L,U,29581.0,4.0,0.0,survey-html-form
72,6226f5287c157e331e933fd7,Chrome,classification_task,faces,"3/8/2022, 12:18:16 AM",j0yvscessxyoj38u4bm8,029,0.0-5.0,single_subject_test,"{'race2': 'white', 'race_sure': '0', 'gender2': 'woman', 'gender_sure': '0', 'feedback': ''}",,"['woman', '0']",0,"['white', '0']",0,3443.4000000953674,6226f3e8079f5d44c7b6f15e,id029_50R_C.png,6226dcede191b823f306f4d6,5f44c445cfb0a801244f652f,50R,C,33027.0,5.0,0.0,survey-html-form
73,6226f5287c157e331e933fd8,Chrome,classification_task,faces,"3/8/2022, 1:18:15 AM",rzxj6zkzyorrud5ygq01,100,0.0-3.0,single_subject_test,"{'race2': 'white', 'race_sure': '51', 'gender1': 'man', 'gender_sure': '100', 'feedback': ''}",,"['man', '100']",100,"['white', '51']",51,9036.0,6226f44e34c00a828bb3fa2a,id100_25L_C.png,6226dcede191b823f306f4d6,5cf3f7364bcc6400019d71fa,25L,C,33899.0,3.0,0.0,survey-html-form
74,6226f52b7c157e331e933fd9,Chrome,classification_task,faces,"3/7/2022, 10:18:21 PM",uoyjy2l87f10lq1eb04s,051,0.0-3.0,single_subject_test,"{'race6': 'other', 'race_sure': '0', 'gender2': 'woman', 'gender_sure': '0', 'feedback': ''}",,"['woman', '0']",0,"['other', '0']",0,14381.800000000745,6226f46da1a7fd3354a536a4,id051_25L_D.png,6226dcede191b823f306f4d6,5fcdbe153ce79b287e15344e,25L,D,36500.0,3.0,0.0,survey-html-form
75,6226f52d7c157e331e933fda,Chrome,classification_task,faces,"3/8/2022, 12:18:21 AM",j0yvscessxyoj38u4bm8,106,0.0-6.0,single_subject_test,"{'race3': 'east_asian', 'race_sure': '0', 'gender2': 'woman', 'gender_sure': '24', 'feedback': ''}",,"['woman', '24']",24,"['east_asian', '0']",0,5859.099999904633,6226f3e8079f5d44c7b6f15e,id106_25R_U.png,6226dcede191b823f306f4d6,5f44c445cfb0a801244f652f,25R,U,38889.0,6.0,0.0,survey-html-form
76,6226f5317c157e331e933fdb,Chrome,classification_task,faces,"3/8/2022, 1:18:24 AM",rzxj6zkzyorrud5ygq01,061,0.0-4.0,single_subject_test,"{'race2': 'white', 'race_sure': '32', 'gender1': 'man', 'gender_sure': '100', 'feedback': ''}",,"['man', '100']",100,"['white', '32']",32,8582.0,6226f44e34c00a828bb3fa2a,id061_25L_D.png,6226dcede191b823f306f4d6,5cf3f7364bcc6400019d71fa,25L,D,42487.0,4.0,0.0,survey-html-form
77,6226f5347c157e331e933fdc,Chrome,classification_task,faces,"3/8/2022, 12:18:28 AM",j0yvscessxyoj38u4bm8,134,0.0-7.0,single_subject_test,"{'race3': 'east_asian', 'race_sure': '0', 'gender1': 'man', 'gender_sure': '20', 'feedback': ''}",,"['man', '20']",20,"['east_asian', '0']",0,6619.5,6226f3e8079f5d44c7b6f15e,id134_25L_U.png,6226dcede191b823f306f4d6,5f44c445cfb0a801244f652f,25L,U,45511.0,7.0,0.0,survey-html-form
78,6226f5387c157e331e933fdd,Chrome,classification_task,faces,"3/8/2022, 12:18:32 AM",j0yvscessxyoj38u4bm8,051,0.0-8.0,single_subject_test,"{'race2': 'white', 'race_sure': '0', 'gender2': 'woman', 'gender_sure': '0', 'feedback': ''}",,"['woman', '0']",0,"['white', '0']",0,4397.599999904633,6226f3e8079f5d44c7b6f15e,id051_00C_C.png,6226dcede191b823f306f4d6,5f44c445cfb0a801244f652f,00C,C,49911.0,8.0,0.0,survey-html-form
79,6226f5437c157e331e933fde,Chrome,classification_task,faces,"3/8/2022, 1:18:43 AM",qg6eghk4y5grdd1odkt4,050,0.0-1.0,single_subject_test,"{'race_sure': '0', 'gender_sure': '0', 'feedback': ''}",,['0'],0,['0'],0,1572.0,6226f4824f52686c62e6e4b7,id050_00C_C.png,6226dcede191b823f306f4d6,612eac9f6c232dc7efccc967,00C,C,7564.0,1.0,0.0,survey-html-form
80,6226f5457c157e331e933fdf,Chrome,classification_task,faces,"3/8/2022, 1:18:44 AM",qg6eghk4y5grdd1odkt4,011,0.0-2.0,single_subject_test,"{'race_sure': '0', 'gender_sure': '0', 'feedback': ''}",,['0'],0,['0'],0,1089.0,6226f4824f52686c62e6e4b7,id011_00C_C.png,6226dcede191b823f306f4d6,612eac9f6c232dc7efccc967,00C,C,8655.0,2.0,0.0,survey-html-form
81,6226f5457c157e331e933fe0,Chrome,classification_task,faces,"3/8/2022, 1:18:45 AM",qg6eghk4y5grdd1odkt4,112,0.0-3.0,single_subject_test,"{'race_sure': '0', 'gender_sure': '0', 'feedback': ''}",,['0'],0,['0'],0,550.9000000953674,6226f4824f52686c62e6e4b7,id112_25L_U.png,6226dcede191b823f306f4d6,612eac9f6c232dc7efccc967,25L,U,9208.0,3.0,0.0,survey-html-form
82,6226f5467c157e331e933fe1,Chrome,classification_task,faces,"3/8/2022, 1:18:45 AM",qg6eghk4y5grdd1odkt4,089,0.0-4.0,single_subject_test,"{'race_sure': '0', 'gender_sure': '0', 'feedback': ''}",,['0'],0,['0'],0,523.4000000953674,6226f4824f52686c62e6e4b7,id089_00C_C.png,6226dcede191b823f306f4d6,612eac9f6c232dc7efccc967,00C,C,9733.0,4.0,0.0,survey-html-form
83,6226f5467c157e331e933fe2,Chrome,classification_task,faces,"3/8/2022, 1:18:45 AM",qg6eghk4y5grdd1odkt4,067,0.0-5.0,single_subject_test,"{'race_sure': '0', 'gender_sure': '0', 'feedback': ''}",,['0'],0,['0'],0,411.30000019073486,6226f4824f52686c62e6e4b7,id067_50L_D.png,6226dcede191b823f306f4d6,612eac9f6c232dc7efccc967,50L,D,10146.0,5.0,0.0,survey-html-form
84,6226f5467c157e331e933fe3,Chrome,classification_task,faces,"3/8/2022, 1:18:46 AM",qg6eghk4y5grdd1odkt4,092,0.0-6.0,single_subject_test,"{'race_sure': '0', 'gender_sure': '0', 'feedback': ''}",,['0'],0,['0'],0,417.7000002861023,6226f4824f52686c62e6e4b7,id092_50L_D.png,6226dcede191b823f306f4d6,612eac9f6c232dc7efccc967,50L,D,10566.0,6.0,0.0,survey-html-form
85,6226f5477c157e331e933fe4,Chrome,classification_task,faces,"3/8/2022, 1:18:46 AM",qg6eghk4y5grdd1odkt4,075,0.0-7.0,single_subject_test,"{'race_sure': '0', 'gender_sure': '0', 'feedback': ''}",,['0'],0,['0'],0,425.7000002861023,6226f4824f52686c62e6e4b7,id075_50L_C.png,6226dcede191b823f306f4d6,612eac9f6c232dc7efccc967,50L,C,10993.0,7.0,0.0,survey-html-form
86,6226f5477c157e331e933fe5,Chrome,classification_task,faces,"3/8/2022, 1:18:47 AM",qg6eghk4y5grdd1odkt4,155,0.0-8.0,single_subject_test,"{'race_sure': '0', 'gender_sure': '0', 'feedback': ''}",,['0'],0,['0'],0,347.5,6226f4824f52686c62e6e4b7,id155_50R_C.png,6226dcede191b823f306f4d6,612eac9f6c232dc7efccc967,50R,C,11343.0,8.0,0.0,survey-html-form
87,6226f5477c157e331e933fe6,Chrome,classification_task,faces,"3/8/2022, 1:18:47 AM",qg6eghk4y5grdd1odkt4,031,0.0-9.0,single_subject_test,"{'race_sure': '0', 'gender_sure': '0', 'feedback': ''}",,['0'],0,['0'],0,236.2999997138977,6226f4824f52686c62e6e4b7,id031_25L_D.png,6226dcede191b823f306f4d6,612eac9f6c232dc7efccc967,25L,D,11583.0,9.0,0.0,survey-html-form
88,6226f5487c157e331e933fe7,Chrome,classification_task,faces,"3/8/2022, 1:18:48 AM",qg6eghk4y5grdd1odkt4,056,0.0-10.0,single_subject_test,"{'race_sure': '0', 'gender_sure': '0', 'feedback': ''}",,['0'],0,['0'],0,821.1999998092651,6226f4824f52686c62e6e4b7,id056_25L_C.png,6226dcede191b823f306f4d6,612eac9f6c232dc7efccc967,25L,C,12408.0,10.0,0.0,survey-html-form
89,6226f54e7c157e331e933fe8,Chrome,classification_task,faces,"3/8/2022, 1:18:54 AM",qg6eghk4y5grdd1odkt4,054,0.0-1.0,single_subject_test,"{'race_sure': '0', 'gender_sure': '0', 'feedback': ''}",,['0'],0,['0'],0,1269.8000001907349,6226f4824f52686c62e6e4b7,id054_25L_C.png,6226dcede191b823f306f4d6,612eac9f6c232dc7efccc967,25L,C,5986.0,1.0,0.0,survey-html-form
90,6226f54f7c157e331e933fe9,Chrome,classification_task,faces,"3/8/2022, 1:18:54 AM",qg6eghk4y5grdd1odkt4,107,0.0-2.0,single_subject_test,"{'race_sure': '0', 'gender_sure': '0', 'feedback': ''}",,['0'],0,['0'],0,313.30000019073486,6226f4824f52686c62e6e4b7,id107_50R_D.png,6226dcede191b823f306f4d6,612eac9f6c232dc7efccc967,50R,D,6301.0,2.0,0.0,survey-html-form
91,6226f54f7c157e331e933fea,Chrome,classification_task,faces,"3/8/2022, 1:18:55 AM",qg6eghk4y5grdd1odkt4,033,0.0-3.0,single_subject_test,"{'race_sure': '0', 'gender_sure': '0', 'feedback': ''}",,['0'],0,['0'],0,272.0,6226f4824f52686c62e6e4b7,id033_50L_D.png,6226dcede191b823f306f4d6,612eac9f6c232dc7efccc967,50L,D,6575.0,3.0,0.0,survey-html-form
92,6226f54f7c157e331e933feb,Chrome,classification_task,faces,"3/8/2022, 1:18:55 AM",qg6eghk4y5grdd1odkt4,035,0.0-4.0,single_subject_test,"{'race_sure': '0', 'gender_sure': '0', 'feedback': ''}",,['0'],0,['0'],0,298.69999980926514,6226f4824f52686c62e6e4b7,id035_25L_U.png,6226dcede191b823f306f4d6,612eac9f6c232dc7efccc967,25L,U,6875.0,4.0,0.0,survey-html-form
93,6226f5507c157e331e933fec,Chrome,classification_task,faces,"3/8/2022, 1:18:55 AM",qg6eghk4y5grdd1odkt4,153,0.0-5.0,single_subject_test,"{'race_sure': '0', 'gender_sure': '0', 'feedback': ''}",,['0'],0,['0'],0,285.5,6226f4824f52686c62e6e4b7,id153_50R_D.png,6226dcede191b823f306f4d6,612eac9f6c232dc7efccc967,50R,D,7163.0,5.0,0.0,survey-html-form
94,6226f5507c157e331e933fed,Chrome,classification_task,faces,"3/8/2022, 1:18:55 AM",qg6eghk4y5grdd1odkt4,025,0.0-6.0,single_subject_test,"{'race_sure': '0', 'gender_sure': '0', 'feedback': ''}",,['0'],0,['0'],0,271.09999990463257,6226f4824f52686c62e6e4b7,id025_50L_U.png,6226dcede191b823f306f4d6,612eac9f6c232dc7efccc967,50L,U,7435.0,6.0,0.0,survey-html-form
95,6226f5507c157e331e933fee,Chrome,classification_task,faces,"3/8/2022, 1:18:56 AM",qg6eghk4y5grdd1odkt4,078,0.0-7.0,single_subject_test,"{'race_sure': '0', 'gender_sure': '0', 'feedback': ''}",,['0'],0,['0'],0,272.19999980926514,6226f4824f52686c62e6e4b7,id078_25L_U.png,6226dcede191b823f306f4d6,612eac9f6c232dc7efccc967,25L,U,7709.0,7.0,0.0,survey-html-form
96,6226f5507c157e331e933fef,Chrome,classification_task,faces,"3/8/2022, 1:18:56 AM",qg6eghk4y5grdd1odkt4,081,0.0-8.0,single_subject_test,"{'race_sure': '0', 'gender_sure': '0', 'feedback': ''}",,['0'],0,['0'],0,284.90000009536743,6226f4824f52686c62e6e4b7,id081_50R_D.png,6226dcede191b823f306f4d6,612eac9f6c232dc7efccc967,50R,D,7995.0,8.0,0.0,survey-html-form
97,6226f5517c157e331e933ff0,Chrome,classification_task,faces,"3/8/2022, 1:18:56 AM",qg6eghk4y5grdd1odkt4,043,0.0-9.0,single_subject_test,"{'race_sure': '0', 'gender_sure': '0', 'feedback': ''}",,['0'],0,['0'],0,348.69999980926514,6226f4824f52686c62e6e4b7,id043_25L_U.png,6226dcede191b823f306f4d6,612eac9f6c232dc7efccc967,25L,U,8345.0,9.0,0.0,survey-html-form
98,6226f5517c157e331e933ff1,Chrome,classification_task,faces,"3/8/2022, 1:18:57 AM",qg6eghk4y5grdd1odkt4,047,0.0-10.0,single_subject_test,"{'race_sure': '0', 'gender_sure': '0', 'feedback': ''}",,['0'],0,['0'],0,355.59999990463257,6226f4824f52686c62e6e4b7,id047_50L_U.png,6226dcede191b823f306f4d6,612eac9f6c232dc7efccc967,50L,U,8702.0,10.0,0.0,survey-html-form
99,6226f5527c157e331e933ff2,Chrome,classification_task,faces,"3/8/2022, 1:18:57 AM",qg6eghk4y5grdd1odkt4,059,0.0-11.0,single_subject_test,"{'race_sure': '0', 'gender_sure': '0', 'feedback': ''}",,['0'],0,['0'],0,369.5,6226f4824f52686c62e6e4b7,id059_25R_U.png,6226dcede191b823f306f4d6,612eac9f6c232dc7efccc967,25R,U,9074.0,11.0,0.0,survey-html-form
100,6226f5527c157e331e933ff3,Chrome,classification_task,faces,"3/8/2022, 1:18:57 AM",qg6eghk4y5grdd1odkt4,120,0.0-12.0,single_subject_test,"{'race_sure': '0', 'gender_sure': '0', 'feedback': ''}",,['0'],0,['0'],0,382.40000009536743,6226f4824f52686c62e6e4b7,id120_00C_D.png,6226dcede191b823f306f4d6,612eac9f6c232dc7efccc967,00C,D,9458.0,12.0,0.0,survey-html-form
101,6226f5527c157e331e933ff4,Chrome,classification_task,faces,"3/8/2022, 1:18:58 AM",qg6eghk4y5grdd1odkt4,138,0.0-13.0,single_subject_test,"{'race_sure': '0', 'gender_sure': '0', 'feedback': ''}",,['0'],0,['0'],0,398.0,6226f4824f52686c62e6e4b7,id138_50L_U.png,6226dcede191b823f306f4d6,612eac9f6c232dc7efccc967,50L,U,9857.0,13.0,0.0,survey-html-form
102,6226f5537c157e331e933ff5,Chrome,classification_task,faces,"3/8/2022, 1:18:58 AM",qg6eghk4y5grdd1odkt4,090,0.0-14.0,single_subject_test,"{'race_sure': '0', 'gender_sure': '0', 'feedback': ''}",,['0'],0,['0'],0,362.5,6226f4824f52686c62e6e4b7,id090_50R_D.png,6226dcede191b823f306f4d6,612eac9f6c232dc7efccc967,50R,D,10221.0,14.0,0.0,survey-html-form
103,6226f5537c157e331e933ff6,Chrome,classification_task,faces,"3/8/2022, 1:18:59 AM",qg6eghk4y5grdd1odkt4,071,0.0-15.0,single_subject_test,"{'race_sure': '0', 'gender_sure': '0', 'feedback': ''}",,['0'],0,['0'],0,403.90000009536743,6226f4824f52686c62e6e4b7,id071_00C_U.png,6226dcede191b823f306f4d6,612eac9f6c232dc7efccc967,00C,U,10627.0,15.0,0.0,survey-html-form
104,6226f5537c157e331e933ff7,Chrome,classification_task,faces,"3/8/2022, 1:18:59 AM",qg6eghk4y5grdd1odkt4,006,0.0-16.0,single_subject_test,"{'race_sure': '0', 'gender_sure': '0', 'feedback': ''}",,['0'],0,['0'],0,369.40000009536743,6226f4824f52686c62e6e4b7,id006_25L_C.png,6226dcede191b823f306f4d6,612eac9f6c232dc7efccc967,25L,C,10998.0,16.0,0.0,survey-html-form
105,6226f5547c157e331e933ff8,Chrome,classification_task,faces,"3/8/2022, 1:18:59 AM",qg6eghk4y5grdd1odkt4,012,0.0-17.0,single_subject_test,"{'race_sure': '0', 'gender_sure': '0', 'feedback': ''}",,['0'],0,['0'],0,369.80000019073486,6226f4824f52686c62e6e4b7,id012_25R_D.png,6226dcede191b823f306f4d6,612eac9f6c232dc7efccc967,25R,D,11370.0,17.0,0.0,survey-html-form
106,6226f5547c157e331e933ff9,Chrome,classification_task,faces,"3/8/2022, 1:19:00 AM",qg6eghk4y5grdd1odkt4,019,0.0-18.0,single_subject_test,"{'race_sure': '0', 'gender_sure': '0', 'feedback': ''}",,['0'],0,['0'],0,396.7999997138977,6226f4824f52686c62e6e4b7,id019_25L_D.png,6226dcede191b823f306f4d6,612eac9f6c232dc7efccc967,25L,D,11768.0,18.0,0.0,survey-html-form
107,6226f5557c157e331e933ffa,Chrome,classification_task,faces,"3/8/2022, 1:19:00 AM",qg6eghk4y5grdd1odkt4,102,0.0-19.0,single_subject_test,"{'race_sure': '0', 'gender_sure': '0', 'feedback': ''}",,['0'],0,['0'],0,376.19999980926514,6226f4824f52686c62e6e4b7,id102_50R_U.png,6226dcede191b823f306f4d6,612eac9f6c232dc7efccc967,50R,U,12146.0,19.0,0.0,survey-html-form
108,6226f5557c157e331e933ffb,Chrome,classification_task,faces,"3/8/2022, 1:19:01 AM",qg6eghk4y5grdd1odkt4,119,0.0-20.0,single_subject_test,"{'race_sure': '0', 'gender_sure': '0', 'feedback': ''}",,['0'],0,['0'],0,404.5,6226f4824f52686c62e6e4b7,id119_25L_U.png,6226dcede191b823f306f4d6,612eac9f6c232dc7efccc967,25L,U,12552.0,20.0,0.0,survey-html-form
109,6226f5587c157e331e933ffc,Chrome,classification_task,faces,"3/8/2022, 1:19:02 AM",rzxj6zkzyorrud5ygq01,122,0.0-1.0,single_subject_test,"{'race4': 'south_asian', 'race_sure': '33', 'gender1': 'man', 'gender_sure': '89', 'feedback': ''}",,"['man', '89']",89,"['south_asian', '33']",33,10651.0,6226f44e34c00a828bb3fa2a,id122_50L_D.png,6226dcede191b823f306f4d6,5cf3f7364bcc6400019d71fa,50L,D,14916.0,1.0,0.0,survey-html-form
110,6226f5597c157e331e933ffd,Chrome,classification_task,faces,"3/7/2022, 10:19:07 PM",uoyjy2l87f10lq1eb04s,077,0.0-1.0,single_subject_test,"{'race6': 'other', 'race_sure': '0', 'gender3': 'other', 'gender_sure': '0', 'feedback': ''}",,"['other', '0']",0,"['other', '0']",0,6644.79999999702,6226f46da1a7fd3354a536a4,id077_50L_U.png,6226dcede191b823f306f4d6,5fcdbe153ce79b287e15344e,50L,U,16832.0,1.0,0.0,survey-html-form
111,6226f56c7c157e331e933ffe,Chrome,classification_task,faces,"3/7/2022, 10:19:26 PM",uoyjy2l87f10lq1eb04s,124,0.0-1.0,single_subject_test,"{'race6': 'other', 'race_sure': '0', 'gender3': 'other', 'gender_sure': '0', 'feedback': ''}",,"['other', '0']",0,"['other', '0']",0,5312.89999999851,6226f46da1a7fd3354a536a4,id124_00C_U.png,6226dcede191b823f306f4d6,5fcdbe153ce79b287e15344e,00C,U,13063.0,1.0,0.0,survey-html-form
112,6226f5727c157e331e933fff,Chrome,classification_task,faces,"3/7/2022, 10:19:32 PM",uoyjy2l87f10lq1eb04s,156,0.0-2.0,single_subject_test,"{'race6': 'other', 'race_sure': '0', 'gender3': 'other', 'gender_sure': '0', 'feedback': ''}",,"['other', '0']",0,"['other', '0']",0,5486.199999999255,6226f46da1a7fd3354a536a4,id156_50R_C.png,6226dcede191b823f306f4d6,5fcdbe153ce79b287e15344e,50R,C,18557.0,2.0,0.0,survey-html-form
113,6226f5787c157e331e934000,Chrome,classification_task,faces,"3/8/2022, 12:19:36 AM",ueqhaph6qqczfc47jeb3,146,0.0-1.0,single_subject_test,"{'race2': 'white', 'race_sure': '100', 'gender1': 'man', 'gender_sure': '100', 'feedback': ''}",,"['man', '100']",100,"['white', '100']",100,14777.09999999404,6226f4e6fa4fd41910029ee3,id146_25R_D.png,6226dcede191b823f306f4d6,5cbcfce214b3cb0015f03471,25R,D,24497.0,1.0,0.0,survey-html-form
114,6226f57a7c157e331e934001,Chrome,classification_task,faces,"3/7/2022, 10:19:40 PM",uoyjy2l87f10lq1eb04s,087,0.0-3.0,single_subject_test,"{'race4': 'south_asian', 'race_sure': '0', 'gender1': 'man', 'gender_sure': '0', 'feedback': ''}",,"['man', '0']",0,"['south_asian', '0']",0,8404.70000000298,6226f46da1a7fd3354a536a4,id087_25L_C.png,6226dcede191b823f306f4d6,5fcdbe153ce79b287e15344e,25L,C,26970.0,3.0,0.0,survey-html-form
115,6226f57c7c157e331e934002,Chrome,classification_task,faces,"3/8/2022, 1:19:38 AM",5be834ejpgquhcerj66z,007,0.0-1.0,single_subject_test,"{'race2': 'white', 'race_sure': '90', 'gender2': 'woman', 'gender_sure': '100', 'feedback': ''}",,"['woman', '100']",100,"['white', '90']",90,12706.0,6226f4336820da546da7dff9,id007_50R_C.png,6226dcede191b823f306f4d6,5a791168f49c9a0001f31061,50R,C,29339.0,1.0,0.0,survey-html-form
116,6226f57f7c157e331e934003,Chrome,classification_task,faces,"3/7/2022, 10:19:45 PM",uoyjy2l87f10lq1eb04s,068,0.0-4.0,single_subject_test,"{'race6': 'other', 'race_sure': '0', 'gender3': 'other', 'gender_sure': '0', 'feedback': ''}",,"['other', '0']",0,"['other', '0']",0,5218.300000000745,6226f46da1a7fd3354a536a4,id068_00C_D.png,6226dcede191b823f306f4d6,5fcdbe153ce79b287e15344e,00C,D,32196.0,4.0,0.0,survey-html-form
117,6226f5837c157e331e934004,Chrome,classification_task,faces,"3/8/2022, 12:19:48 AM",ueqhaph6qqczfc47jeb3,142,0.0-2.0,single_subject_test,"{'race1': 'black', 'race_sure': '100', 'gender2': 'woman', 'gender_sure': '100', 'feedback': ''}",,"['woman', '100']",100,"['black', '100']",100,11889.89999999851,6226f4e6fa4fd41910029ee3,id142_25L_C.png,6226dcede191b823f306f4d6,5cbcfce214b3cb0015f03471,25L,C,36499.0,2.0,0.0,survey-html-form
118,6226f5877c157e331e934005,Chrome,classification_task,faces,"3/7/2022, 10:19:53 PM",uoyjy2l87f10lq1eb04s,103,0.0-5.0,single_subject_test,"{'race4': 'south_asian', 'race_sure': '0', 'gender2': 'woman', 'gender_sure': '0', 'feedback': ''}",,"['woman', '0']",0,"['south_asian', '0']",0,7919.5,6226f46da1a7fd3354a536a4,id103_25L_C.png,6226dcede191b823f306f4d6,5fcdbe153ce79b287e15344e,25L,C,40123.0,5.0,0.0,survey-html-form
119,6226f5897c157e331e934006,Chrome,classification_task,faces,"3/8/2022, 1:19:51 AM",5be834ejpgquhcerj66z,142,0.0-2.0,single_subject_test,"{'race1': 'black', 'race_sure': '100', 'gender2': 'woman', 'gender_sure': '99', 'feedback': ''}",,"['woman', '99']",99,"['black', '100']",100,13099.5,6226f4336820da546da7dff9,id142_50R_U.png,6226dcede191b823f306f4d6,5a791168f49c9a0001f31061,50R,U,42446.0,2.0,0.0,survey-html-form
120,6226f58d7c157e331e934007,Chrome,classification_task,faces,"3/7/2022, 10:19:59 PM",uoyjy2l87f10lq1eb04s,146,0.0-6.0,single_subject_test,"{'race2': 'white', 'race_sure': '0', 'gender1': 'man', 'gender_sure': '0', 'feedback': ''}",,"['man', '0']",0,"['white', '0']",0,5629.900000002235,6226f46da1a7fd3354a536a4,id146_00C_U.png,6226dcede191b823f306f4d6,5fcdbe153ce79b287e15344e,00C,U,45763.0,6.0,0.0,survey-html-form
121,6226f5937c157e331e934008,Chrome,classification_task,faces,"3/8/2022, 12:20:03 AM",ueqhaph6qqczfc47jeb3,072,0.0-3.0,single_subject_test,"{'race5': 'latinx', 'race_sure': '56', 'gender1': 'man', 'gender_sure': '0', 'feedback': ''}",,"['man', '0']",0,"['latinx', '56']",56,15399.0,6226f4e6fa4fd41910029ee3,id072_50R_U.png,6226dcede191b823f306f4d6,5cbcfce214b3cb0015f03471,50R,U,51904.0,3.0,0.0,survey-html-form
122,6226f5947c157e331e934009,Chrome,classification_task,faces,"3/7/2022, 10:20:06 PM",uoyjy2l87f10lq1eb04s,118,0.0-7.0,single_subject_test,"{'race6': 'other', 'race_sure': '0', 'gender1': 'man', 'gender_sure': '0', 'feedback': ''}",,"['man', '0']",0,"['other', '0']",0,7371.10000000149,6226f46da1a7fd3354a536a4,id118_50L_D.png,6226dcede191b823f306f4d6,5fcdbe153ce79b287e15344e,50L,D,53143.0,7.0,0.0,survey-html-form
123,6226f5957c157e331e93400a,Chrome,classification_task,faces,"3/8/2022, 1:20:03 AM",5be834ejpgquhcerj66z,003,0.0-3.0,single_subject_test,"{'race2': 'white', 'race_sure': '79', 'gender2': 'woman', 'gender_sure': '100', 'feedback': ''}",,"['woman', '100']",100,"['white', '79']",79,12032.899999856949,6226f4336820da546da7dff9,id003_25R_D.png,6226dcede191b823f306f4d6,5a791168f49c9a0001f31061,25R,D,54482.0,3.0,0.0,survey-html-form
124,6226f59c7c157e331e93400b,Chrome,classification_task,faces,"3/7/2022, 10:20:14 PM",uoyjy2l87f10lq1eb04s,070,0.0-8.0,single_subject_test,"{'race2': 'white', 'race_sure': '0', 'gender1': 'man', 'gender_sure': '0', 'feedback': ''}",,"['man', '0']",0,"['white', '0']",0,7483.39999999851,6226f46da1a7fd3354a536a4,id070_25R_C.png,6226dcede191b823f306f4d6,5fcdbe153ce79b287e15344e,25R,C,60634.0,8.0,0.0,survey-html-form
125,6226f59d7c157e331e93400c,Chrome,classification_task,faces,"3/8/2022, 12:20:14 AM",ueqhaph6qqczfc47jeb3,003,0.0-4.0,single_subject_test,"{'race2': 'white', 'race_sure': '100', 'gender2': 'woman', 'gender_sure': '0', 'feedback': ''}",,"['woman', '0']",0,"['white', '100']",100,10637.5,6226f4e6fa4fd41910029ee3,id003_50L_U.png,6226dcede191b823f306f4d6,5cbcfce214b3cb0015f03471,50L,U,62546.0,4.0,0.0,survey-html-form
126,6226f5a17c157e331e93400d,Chrome,classification_task,faces,"3/7/2022, 10:20:19 PM",uoyjy2l87f10lq1eb04s,080,0.0-9.0,single_subject_test,"{'race2': 'white', 'race_sure': '0', 'gender1': 'man', 'gender_sure': '0', 'feedback': ''}",,"['man', '0']",0,"['white', '0']",0,5086.5,6226f46da1a7fd3354a536a4,id080_25L_U.png,6226dcede191b823f306f4d6,5fcdbe153ce79b287e15344e,25L,U,65728.0,9.0,0.0,survey-html-form
127,6226f5b57c157e331e93400e,Chrome,classification_task,faces,"3/7/2022, 10:20:39 PM",uoyjy2l87f10lq1eb04s,040,0.0-1.0,single_subject_test,"{'race3': 'east_asian', 'race_sure': '0', 'gender1': 'man', 'gender_sure': '0', 'feedback': ''}",,"['man', '0']",0,"['east_asian', '0']",0,7520.699999999255,6226f46da1a7fd3354a536a4,id040_25R_U.png,6226dcede191b823f306f4d6,5fcdbe153ce79b287e15344e,25R,U,17857.0,1.0,0.0,survey-html-form
128,6226f5ba7c157e331e93400f,Chrome,classification_task,faces,"3/7/2022, 10:20:44 PM",uoyjy2l87f10lq1eb04s,001,0.0-2.0,single_subject_test,"{'race1': 'black', 'race_sure': '0', 'gender1': 'man', 'gender_sure': '0', 'feedback': ''}",,"['man', '0']",0,"['black', '0']",0,4708.79999999702,6226f46da1a7fd3354a536a4,id001_25L_D.png,6226dcede191b823f306f4d6,5fcdbe153ce79b287e15344e,25L,D,22574.0,2.0,0.0,survey-html-form
129,6226f5bf7c157e331e934010,Chrome,classification_task,faces,"3/7/2022, 10:20:49 PM",uoyjy2l87f10lq1eb04s,082,0.0-3.0,single_subject_test,"{'race5': 'latinx', 'race_sure': '0', 'gender1': 'man', 'gender_sure': '0', 'feedback': ''}",,"['man', '0']",0,"['latinx', '0']",0,5181.5,6226f46da1a7fd3354a536a4,id082_00C_U.png,6226dcede191b823f306f4d6,5fcdbe153ce79b287e15344e,00C,U,27763.0,3.0,0.0,survey-html-form
130,6226f5c57c157e331e934011,Chrome,classification_task,faces,"3/8/2022, 12:20:53 AM",ueqhaph6qqczfc47jeb3,036,0.0-1.0,single_subject_test,"{'race1': 'black', 'race_sure': '100', 'gender1': 'man', 'gender_sure': '100', 'feedback': ''}",,"['man', '100']",100,"['black', '100']",100,11871.69999999553,6226f4e6fa4fd41910029ee3,id036_25L_D.png,6226dcede191b823f306f4d6,5cbcfce214b3cb0015f03471,25L,D,33332.0,1.0,0.0,survey-html-form
131,6226f5c57c157e331e934012,Chrome,classification_task,faces,"3/7/2022, 10:20:55 PM",uoyjy2l87f10lq1eb04s,070,0.0-4.0,single_subject_test,"{'race2': 'white', 'race_sure': '0', 'gender1': 'man', 'gender_sure': '0', 'feedback': ''}",,"['man', '0']",0,"['white', '0']",0,6039.800000000745,6226f46da1a7fd3354a536a4,id070_00C_D.png,6226dcede191b823f306f4d6,5fcdbe153ce79b287e15344e,00C,D,33812.0,4.0,0.0,survey-html-form
132,6226f5cb7c157e331e934013,Chrome,classification_task,faces,"3/7/2022, 10:21:01 PM",uoyjy2l87f10lq1eb04s,015,0.0-5.0,single_subject_test,"{'race6': 'other', 'race_sure': '0', 'gender1': 'man', 'gender_sure': '0', 'feedback': ''}",,"['man', '0']",0,"['other', '0']",0,5785.5,6226f46da1a7fd3354a536a4,id015_25R_C.png,6226dcede191b823f306f4d6,5fcdbe153ce79b287e15344e,25R,C,39606.0,5.0,0.0,survey-html-form
133,6226f5cf7c157e331e934014,Chrome,classification_task,faces,"3/8/2022, 12:21:03 AM",ueqhaph6qqczfc47jeb3,101,0.0-2.0,single_subject_test,"{'race2': 'white', 'race_sure': '100', 'gender2': 'woman', 'gender_sure': '100', 'feedback': ''}",,"['woman', '100']",100,"['white', '100']",100,10044.29999999702,6226f4e6fa4fd41910029ee3,id101_25R_C.png,6226dcede191b823f306f4d6,5cbcfce214b3cb0015f03471,25R,C,43383.0,2.0,0.0,survey-html-form
134,6226f5d27c157e331e934015,Chrome,classification_task,faces,"3/7/2022, 10:21:08 PM",uoyjy2l87f10lq1eb04s,126,0.0-6.0,single_subject_test,"{'race1': 'black', 'race_sure': '0', 'gender2': 'woman', 'gender_sure': '0', 'feedback': ''}",,"['woman', '0']",0,"['black', '0']",0,6925.60000000149,6226f46da1a7fd3354a536a4,id126_25L_U.png,6226dcede191b823f306f4d6,5fcdbe153ce79b287e15344e,25L,U,46541.0,6.0,0.0,survey-html-form
135,6226f5d87c157e331e934016,Chrome,classification_task,faces,"3/7/2022, 10:21:14 PM",uoyjy2l87f10lq1eb04s,093,0.0-7.0,single_subject_test,"{'race2': 'white', 'race_sure': '0', 'gender1': 'man', 'gender_sure': '0', 'feedback': ''}",,"['man', '0']",0,"['white', '0']",0,5967.199999999255,6226f46da1a7fd3354a536a4,id093_50L_U.png,6226dcede191b823f306f4d6,5fcdbe153ce79b287e15344e,50L,U,52517.0,7.0,0.0,survey-html-form
136,6226f5d97c157e331e934017,Chrome,classification_task,faces,"3/8/2022, 12:21:13 AM",ueqhaph6qqczfc47jeb3,116,0.0-3.0,single_subject_test,"{'race2': 'white', 'race_sure': '100', 'gender1': 'man', 'gender_sure': '100', 'feedback': ''}",,"['man', '100']",100,"['white', '100']",100,10003.89999999851,6226f4e6fa4fd41910029ee3,id116_50L_D.png,6226dcede191b823f306f4d6,5cbcfce214b3cb0015f03471,50L,D,53394.0,3.0,0.0,survey-html-form
137,6226f5de7c157e331e934018,Chrome,classification_task,faces,"3/7/2022, 10:21:19 PM",uoyjy2l87f10lq1eb04s,049,0.0-8.0,single_subject_test,"{'race6': 'other', 'race_sure': '0', 'gender1': 'man', 'gender_sure': '0', 'feedback': ''}",,"['man', '0']",0,"['other', '0']",0,5508.599999997765,6226f46da1a7fd3354a536a4,id049_00C_D.png,6226dcede191b823f306f4d6,5fcdbe153ce79b287e15344e,00C,D,58036.0,8.0,0.0,survey-html-form
138,6226f5e17c157e331e934019,Chrome,classification_task,faces,"3/8/2022, 1:21:17 AM",m06hvr4x7nltz9nryben,041,0.0-1.0,single_subject_test,"{'race2': 'white', 'race_sure': '46', 'gender1': 'man', 'gender_sure': '100', 'feedback': ''}",,"['man', '100']",100,"['white', '46']",46,25602.900000002235,6226f59b214ec3bf23138361,id041_25R_C.png,6226dcede191b823f306f4d6,60fd06e76b4bc44c8f7a8b41,25R,C,61948.0,1.0,0.0,survey-html-form
139,6226f5e27c157e331e93401a,Chrome,classification_task,faces,"3/8/2022, 12:21:22 AM",ueqhaph6qqczfc47jeb3,052,0.0-4.0,single_subject_test,"{'race2': 'white', 'race_sure': '100', 'gender1': 'man', 'gender_sure': '100', 'feedback': ''}",,"['man', '100']",100,"['white', '100']",100,9400.79999999702,6226f4e6fa4fd41910029ee3,id052_25R_U.png,6226dcede191b823f306f4d6,5cbcfce214b3cb0015f03471,25R,U,62801.0,4.0,0.0,survey-html-form
140,6226f5e37c157e331e93401b,Chrome,classification_task,faces,"3/7/2022, 10:21:25 PM",uoyjy2l87f10lq1eb04s,024,0.0-9.0,single_subject_test,"{'race2': 'white', 'race_sure': '0', 'gender2': 'woman', 'gender_sure': '0', 'feedback': ''}",,"['woman', '0']",0,"['white', '0']",0,5343.900000002235,6226f46da1a7fd3354a536a4,id024_50L_U.png,6226dcede191b823f306f4d6,5fcdbe153ce79b287e15344e,50L,U,63387.0,9.0,0.0,survey-html-form
141,6226f5e97c157e331e93401c,Chrome,classification_task,faces,"3/7/2022, 10:21:31 PM",uoyjy2l87f10lq1eb04s,117,0.0-10.0,single_subject_test,"{'race5': 'latinx', 'race_sure': '0', 'gender1': 'man', 'gender_sure': '0', 'feedback': ''}",,"['man', '0']",0,"['latinx', '0']",0,6371.0,6226f46da1a7fd3354a536a4,id117_50L_C.png,6226dcede191b823f306f4d6,5fcdbe153ce79b287e15344e,50L,C,69765.0,10.0,0.0,survey-html-form
142,6226f5ec7c157e331e93401d,Chrome,classification_task,faces,"3/8/2022, 12:21:32 AM",ueqhaph6qqczfc47jeb3,084,0.0-5.0,single_subject_test,"{'race2': 'white', 'race_sure': '100', 'gender2': 'woman', 'gender_sure': '100', 'feedback': ''}",,"['woman', '100']",100,"['white', '100']",100,9292.80000000447,6226f4e6fa4fd41910029ee3,id084_50R_C.png,6226dcede191b823f306f4d6,5cbcfce214b3cb0015f03471,50R,C,72100.0,5.0,0.0,survey-html-form
143,6226f5f07c157e331e93401e,Chrome,classification_task,faces,"3/7/2022, 10:21:37 PM",uoyjy2l87f10lq1eb04s,125,0.0-11.0,single_subject_test,"{'race6': 'other', 'race_sure': '0', 'gender2': 'woman', 'gender_sure': '0', 'feedback': ''}",,"['woman', '0']",0,"['other', '0']",0,6210.800000000745,6226f46da1a7fd3354a536a4,id125_25R_C.png,6226dcede191b823f306f4d6,5fcdbe153ce79b287e15344e,25R,C,75983.0,11.0,0.0,survey-html-form
144,6226f5f17c157e331e93401f,Chrome,classification_task,faces,"3/8/2022, 1:21:33 AM",m06hvr4x7nltz9nryben,135,0.0-2.0,single_subject_test,"{'race5': 'latinx', 'race_sure': '21', 'gender2': 'woman', 'gender_sure': '89', 'feedback': ''}",,"['woman', '89']",89,"['latinx', '21']",21,15819.10000000149,6226f59b214ec3bf23138361,id135_25L_C.png,6226dcede191b823f306f4d6,60fd06e76b4bc44c8f7a8b41,25L,C,77788.0,2.0,0.0,survey-html-form
145,6226f5f47c157e331e934020,Chrome,classification_task,faces,"3/8/2022, 12:21:40 AM",ueqhaph6qqczfc47jeb3,056,0.0-6.0,single_subject_test,"{'race1': 'black', 'race_sure': '100', 'gender1': 'man', 'gender_sure': '100', 'feedback': ''}",,"['man', '100']",100,"['black', '100']",100,8250.69999999553,6226f4e6fa4fd41910029ee3,id056_25R_U.png,6226dcede191b823f306f4d6,5cbcfce214b3cb0015f03471,25R,U,80358.0,6.0,0.0,survey-html-form
146,6226f5f57c157e331e934021,Chrome,classification_task,faces,"3/7/2022, 10:21:43 PM",uoyjy2l87f10lq1eb04s,031,0.0-12.0,single_subject_test,"{'race6': 'other', 'race_sure': '0', 'gender2': 'woman', 'gender_sure': '0', 'feedback': ''}",,"['woman', '0']",0,"['other', '0']",0,5932.099999997765,6226f46da1a7fd3354a536a4,id031_25R_C.png,6226dcede191b823f306f4d6,5fcdbe153ce79b287e15344e,25R,C,81923.0,12.0,0.0,survey-html-form
147,6226f5fd7c157e331e934022,Chrome,classification_task,faces,"3/7/2022, 10:21:50 PM",uoyjy2l87f10lq1eb04s,098,0.0-13.0,single_subject_test,"{'race1': 'black', 'race_sure': '0', 'gender1': 'man', 'gender_sure': '0', 'feedback': ''}",,"['man', '0']",0,"['black', '0']",0,7107.39999999851,6226f46da1a7fd3354a536a4,id098_25R_C.png,6226dcede191b823f306f4d6,5fcdbe153ce79b287e15344e,25R,C,89037.0,13.0,0.0,survey-html-form
148,6226f5ff7c157e331e934023,Chrome,classification_task,faces,"3/8/2022, 12:21:51 AM",ueqhaph6qqczfc47jeb3,133,0.0-7.0,single_subject_test,"{'race1': 'black', 'race_sure': '100', 'gender2': 'woman', 'gender_sure': '100', 'feedback': ''}",,"['woman', '100']",100,"['black', '100']",100,11145.79999999702,6226f4e6fa4fd41910029ee3,id133_00C_C.png,6226dcede191b823f306f4d6,5cbcfce214b3cb0015f03471,00C,C,91510.0,7.0,0.0,survey-html-form
149,6226f6027c157e331e934024,Chrome,classification_task,faces,"3/7/2022, 10:21:56 PM",uoyjy2l87f10lq1eb04s,101,0.0-14.0,single_subject_test,"{'race2': 'white', 'race_sure': '0', 'gender2': 'woman', 'gender_sure': '0', 'feedback': ''}",,"['woman', '0']",0,"['white', '0']",0,5645.900000002235,6226f46da1a7fd3354a536a4,id101_25R_U.png,6226dcede191b823f306f4d6,5fcdbe153ce79b287e15344e,25R,U,94690.0,14.0,0.0,survey-html-form
150,6226f6087c157e331e934025,Chrome,classification_task,faces,"3/7/2022, 10:22:02 PM",uoyjy2l87f10lq1eb04s,090,0.0-15.0,single_subject_test,"{'race6': 'other', 'race_sure': '0', 'gender1': 'man', 'gender_sure': '0', 'feedback': ''}",,"['man', '0']",0,"['other', '0']",0,5846.400000002235,6226f46da1a7fd3354a536a4,id090_50R_U.png,6226dcede191b823f306f4d6,5fcdbe153ce79b287e15344e,50R,U,100545.0,15.0,0.0,survey-html-form
151,6226f60e7c157e331e934026,Chrome,classification_task,faces,"3/8/2022, 12:22:06 AM",ueqhaph6qqczfc47jeb3,144,0.0-8.0,single_subject_test,"{'race1': 'black', 'race_sure': '100', 'gender1': 'man', 'gender_sure': '100', 'feedback': ''}",,"['man', '100']",100,"['black', '100']",100,14659.30000000447,6226f4e6fa4fd41910029ee3,id144_50L_D.png,6226dcede191b823f306f4d6,5cbcfce214b3cb0015f03471,50L,D,106175.0,8.0,0.0,survey-html-form
152,6226f60e7c157e331e934027,Chrome,classification_task,faces,"3/8/2022, 1:22:02 AM",m06hvr4x7nltz9nryben,005,0.0-3.0,single_subject_test,"{'race1': 'black', 'race6': 'other', 'race_sure': '6', 'gender2': 'woman', 'gender_sure': '71', 'feedback': ''}",,"['woman', '71']",71,"['black', 'other', '6']",6,28621.5,6226f59b214ec3bf23138361,id005_50L_C.png,6226dcede191b823f306f4d6,60fd06e76b4bc44c8f7a8b41,50L,C,106418.0,3.0,0.0,survey-html-form
153,6226f60e7c157e331e934028,Chrome,classification_task,faces,"3/7/2022, 10:22:08 PM",uoyjy2l87f10lq1eb04s,155,0.0-16.0,single_subject_test,"{'race6': 'other', 'race_sure': '0', 'gender3': 'other', 'gender_sure': '0', 'feedback': ''}",,"['other', '0']",0,"['other', '0']",0,5913.699999999255,6226f46da1a7fd3354a536a4,id155_25L_D.png,6226dcede191b823f306f4d6,5fcdbe153ce79b287e15344e,25L,D,106465.0,16.0,0.0,survey-html-form
154,6226f6137c157e331e934029,Chrome,classification_task,faces,"3/7/2022, 10:22:13 PM",uoyjy2l87f10lq1eb04s,027,0.0-17.0,single_subject_test,"{'race6': 'other', 'race_sure': '0', 'gender3': 'other', 'gender_sure': '0', 'feedback': ''}",,"['other', '0']",0,"['other', '0']",0,4724.0,6226f46da1a7fd3354a536a4,id027_25L_D.png,6226dcede191b823f306f4d6,5fcdbe153ce79b287e15344e,25L,D,111195.0,17.0,0.0,survey-html-form
155,6226f6287c157e331e93402a,Chrome,classification_task,faces,"3/8/2022, 1:22:27 AM",m06hvr4x7nltz9nryben,016,0.0-1.0,single_subject_test,"{'race1': 'black', 'race_sure': '52', 'gender3': 'other', 'gender_sure': '0', 'feedback': ''}",,"['other', '0']",0,"['black', '52']",52,11503.0,6226f59b214ec3bf23138361,id016_00C_U.png,6226dcede191b823f306f4d6,60fd06e76b4bc44c8f7a8b41,00C,U,19907.0,1.0,0.0,survey-html-form
156,6226f62a7c157e331e93402b,Chrome,classification_task,faces,"3/7/2022, 10:22:36 PM",uoyjy2l87f10lq1eb04s,100,0.0-1.0,single_subject_test,"{'race2': 'white', 'race_sure': '0', 'gender1': 'man', 'gender_sure': '0', 'feedback': ''}",,"['man', '0']",0,"['white', '0']",0,6364.0,6226f46da1a7fd3354a536a4,id100_00C_U.png,6226dcede191b823f306f4d6,5fcdbe153ce79b287e15344e,00C,U,22159.0,1.0,0.0,survey-html-form
157,6226f62b7c157e331e93402c,Chrome,classification_task,faces,"3/8/2022, 12:22:35 AM",ueqhaph6qqczfc47jeb3,038,0.0-1.0,single_subject_test,"{'race4': 'south_asian', 'race_sure': '100', 'gender1': 'man', 'gender_sure': '100', 'feedback': ''}",,"['man', '100']",100,"['south_asian', '100']",100,12547.09999999404,6226f4e6fa4fd41910029ee3,id038_00C_U.png,6226dcede191b823f306f4d6,5cbcfce214b3cb0015f03471,00C,U,23694.0,1.0,0.0,survey-html-form
158,6226f6337c157e331e93402d,Chrome,classification_task,faces,"3/7/2022, 10:22:44 PM",uoyjy2l87f10lq1eb04s,149,0.0-2.0,single_subject_test,"{'race2': 'white', 'race_sure': '0', 'gender1': 'man', 'gender_sure': '0', 'feedback': ''}",,"['man', '0']",0,"['white', '0']",0,8756.800000000745,6226f46da1a7fd3354a536a4,id149_00C_C.png,6226dcede191b823f306f4d6,5fcdbe153ce79b287e15344e,00C,C,30922.0,2.0,0.0,survey-html-form
159,6226f6347c157e331e93402e,Chrome,classification_task,faces,"3/8/2022, 12:22:44 AM",ueqhaph6qqczfc47jeb3,105,0.0-2.0,single_subject_test,"{'race1': 'black', 'race_sure': '100', 'gender1': 'man', 'gender_sure': '100', 'feedback': ''}",,"['man', '100']",100,"['black', '100']",100,8295.89999999851,6226f4e6fa4fd41910029ee3,id105_50R_D.png,6226dcede191b823f306f4d6,5cbcfce214b3cb0015f03471,50R,D,31996.0,2.0,0.0,survey-html-form
160,6226f6377c157e331e93402f,Chrome,classification_task,faces,"3/8/2022, 1:22:48 AM",ysyunm1xsnea7cse1f9t,023,0.0-1.0,single_subject_test,"{'race5': 'latinx', 'race_sure': '41', 'gender1': 'man', 'gender_sure': '100', 'feedback': ''}",,"['man', '100']",100,"['latinx', '41']",41,13561.700000047684,6226f3ca4519857bce89a9e8,id023_25R_D.png,6226dcede191b823f306f4d6,604d3b6735362f8e79e30ea1,25R,D,35026.0,1.0,0.0,survey-html-form
161,6226f6387c157e331e934030,Chrome,classification_task,faces,"3/7/2022, 10:22:50 PM",uoyjy2l87f10lq1eb04s,065,0.0-3.0,single_subject_test,"{'race6': 'other', 'race_sure': '0', 'gender1': 'man', 'gender_sure': '0', 'feedback': ''}",,"['man', '0']",0,"['other', '0']",0,5822.5,6226f46da1a7fd3354a536a4,id065_25R_D.png,6226dcede191b823f306f4d6,5fcdbe153ce79b287e15344e,25R,D,36752.0,3.0,0.0,survey-html-form
162,6226f63b7c157e331e934031,Chrome,classification_task,faces,"3/8/2022, 12:22:52 AM",ueqhaph6qqczfc47jeb3,049,0.0-3.0,single_subject_test,"{'race2': 'white', 'race_sure': '100', 'gender1': 'man', 'gender_sure': '100', 'feedback': ''}",,"['man', '100']",100,"['white', '100']",100,7861.70000000298,6226f4e6fa4fd41910029ee3,id049_25R_U.png,6226dcede191b823f306f4d6,5cbcfce214b3cb0015f03471,25R,U,39863.0,3.0,0.0,survey-html-form
163,6226f63e7c157e331e934032,Chrome,classification_task,faces,"3/7/2022, 10:22:56 PM",uoyjy2l87f10lq1eb04s,105,0.0-4.0,single_subject_test,"{'race2': 'white', 'race_sure': '0', 'gender1': 'man', 'gender_sure': '0', 'feedback': ''}",,"['man', '0']",0,"['white', '0']",0,5688.89999999851,6226f46da1a7fd3354a536a4,id105_50L_D.png,6226dcede191b823f306f4d6,5fcdbe153ce79b287e15344e,50L,D,42447.0,4.0,0.0,survey-html-form
164,6226f63e7c157e331e934033,Chrome,classification_task,faces,"3/8/2022, 1:22:50 AM",m06hvr4x7nltz9nryben,088,0.0-2.0,single_subject_test,"{'race2': 'white', 'race_sure': '85', 'gender2': 'woman', 'gender_sure': '86', 'feedback': ''}",,"['woman', '86']",86,"['white', '85']",85,22717.800000000745,6226f59b214ec3bf23138361,id088_50R_C.png,6226dcede191b823f306f4d6,60fd06e76b4bc44c8f7a8b41,50R,C,42631.0,2.0,0.0,survey-html-form
165,6226f63f7c157e331e934034,Chrome,classification_task,faces,"3/8/2022, 1:22:54 AM",zowk8xs92dses5fjm4uy,018,0.0-1.0,single_subject_test,"{'race2': 'white', 'race_sure': '75', 'gender2': 'woman', 'gender_sure': '100', 'feedback': ''}",,"['woman', '100']",100,"['white', '75']",75,22318.5,6226f60340c2a56dfa63e758,id018_50R_U.png,6226dcede191b823f306f4d6,5e3cddaa64dfd70d85a5ef3f,50R,U,43503.0,1.0,0.0,survey-html-form
166,6226f6407c157e331e934035,Chrome,classification_task,faces,"3/8/2022, 1:22:57 AM",ysyunm1xsnea7cse1f9t,013,0.0-2.0,single_subject_test,"{'race3': 'east_asian', 'race_sure': '86', 'gender2': 'woman', 'gender_sure': '100', 'feedback': ''}",,"['woman', '100']",100,"['east_asian', '86']",86,8977.599999904633,6226f3ca4519857bce89a9e8,id013_50R_D.png,6226dcede191b823f306f4d6,604d3b6735362f8e79e30ea1,50R,D,44016.0,2.0,0.0,survey-html-form
167,6226f6437c157e331e934036,Chrome,classification_task,faces,"3/7/2022, 10:23:01 PM",uoyjy2l87f10lq1eb04s,092,0.0-5.0,single_subject_test,"{'race2': 'white', 'race_sure': '0', 'gender1': 'man', 'gender_sure': '0', 'feedback': ''}",,"['man', '0']",0,"['white', '0']",0,4703.0,6226f46da1a7fd3354a536a4,id092_50L_U.png,6226dcede191b823f306f4d6,5fcdbe153ce79b287e15344e,50L,U,47156.0,5.0,0.0,survey-html-form
168,6226f6437c157e331e934037,Chrome,classification_task,faces,"3/8/2022, 12:23:00 AM",ueqhaph6qqczfc47jeb3,021,0.0-4.0,single_subject_test,"{'race1': 'black', 'race_sure': '100', 'gender1': 'man', 'gender_sure': '100', 'feedback': ''}",,"['man', '100']",100,"['black', '100']",100,7900.20000000298,6226f4e6fa4fd41910029ee3,id021_50L_U.png,6226dcede191b823f306f4d6,5cbcfce214b3cb0015f03471,50L,U,47768.0,4.0,0.0,survey-html-form
169,6226f6487c157e331e934038,Chrome,classification_task,faces,"3/8/2022, 1:23:06 AM",ysyunm1xsnea7cse1f9t,099,0.0-3.0,single_subject_test,"{'race2': 'white', 'race_sure': '74', 'gender1': 'man', 'gender_sure': '100', 'feedback': ''}",,"['man', '100']",100,"['white', '74']",74,8651.800000190735,6226f3ca4519857bce89a9e8,id099_25R_D.png,6226dcede191b823f306f4d6,604d3b6735362f8e79e30ea1,25R,D,52669.0,3.0,0.0,survey-html-form
170,6226f6497c157e331e934039,Chrome,classification_task,faces,"3/7/2022, 10:23:07 PM",uoyjy2l87f10lq1eb04s,094,0.0-6.0,single_subject_test,"{'race2': 'white', 'race_sure': '0', 'gender1': 'man', 'gender_sure': '0', 'feedback': ''}",,"['man', '0']",0,"['white', '0']",0,6438.800000000745,6226f46da1a7fd3354a536a4,id094_50R_U.png,6226dcede191b823f306f4d6,5fcdbe153ce79b287e15344e,50R,U,53602.0,6.0,0.0,survey-html-form
171,6226f64b7c157e331e93403a,Chrome,classification_task,faces,"3/8/2022, 1:23:03 AM",m06hvr4x7nltz9nryben,020,0.0-3.0,single_subject_test,"{'race1': 'black', 'race_sure': '72', 'gender2': 'woman', 'gender_sure': '77', 'feedback': ''}",,"['woman', '77']",77,"['black', '72']",72,12929.60000000149,6226f59b214ec3bf23138361,id020_50L_D.png,6226dcede191b823f306f4d6,60fd06e76b4bc44c8f7a8b41,50L,D,55566.0,3.0,0.0,survey-html-form
172,6226f64d7c157e331e93403b,Chrome,classification_task,faces,"3/8/2022, 12:23:09 AM",ueqhaph6qqczfc47jeb3,088,0.0-5.0,single_subject_test,"{'race2': 'white', 'race_sure': '81', 'gender1': 'man', 'gender_sure': '100', 'feedback': ''}",,"['man', '100']",100,"['white', '81']",81,9121.5,6226f4e6fa4fd41910029ee3,id088_25R_D.png,6226dcede191b823f306f4d6,5cbcfce214b3cb0015f03471,25R,D,56895.0,5.0,0.0,survey-html-form
173,6226f64d7c157e331e93403c,Chrome,classification_task,faces,"3/8/2022, 1:23:08 AM",zowk8xs92dses5fjm4uy,124,0.0-2.0,single_subject_test,"{'race1': 'black', 'race_sure': '100', 'gender2': 'woman', 'gender_sure': '67', 'feedback': ''}",,"['woman', '67']",67,"['black', '100']",100,13969.5,6226f60340c2a56dfa63e758,id124_25R_U.png,6226dcede191b823f306f4d6,5e3cddaa64dfd70d85a5ef3f,25R,U,57519.0,2.0,0.0,survey-html-form
174,6226f6517c157e331e93403d,Chrome,classification_task,faces,"3/8/2022, 1:23:15 AM",ysyunm1xsnea7cse1f9t,061,0.0-4.0,single_subject_test,"{'race2': 'white', 'race_sure': '59', 'gender1': 'man', 'gender_sure': '100', 'feedback': ''}",,"['man', '100']",100,"['white', '59']",59,9028.800000190735,6226f3ca4519857bce89a9e8,id061_25R_U.png,6226dcede191b823f306f4d6,604d3b6735362f8e79e30ea1,25R,U,61699.0,4.0,0.0,survey-html-form
175,6226f6527c157e331e93403e,Chrome,classification_task,faces,"3/7/2022, 10:23:15 PM",uoyjy2l87f10lq1eb04s,013,0.0-7.0,single_subject_test,"{'race2': 'white', 'race_sure': '0', 'gender2': 'woman', 'gender_sure': '0', 'feedback': ''}",,"['woman', '0']",0,"['white', '0']",0,8363.10000000149,6226f46da1a7fd3354a536a4,id013_50R_D.png,6226dcede191b823f306f4d6,5fcdbe153ce79b287e15344e,50R,D,61970.0,7.0,0.0,survey-html-form
176,6226f6547c157e331e93403f,Chrome,classification_task,faces,"3/8/2022, 12:23:17 AM",ueqhaph6qqczfc47jeb3,032,0.0-6.0,single_subject_test,"{'race2': 'white', 'race_sure': '100', 'gender1': 'man', 'gender_sure': '100', 'feedback': ''}",,"['man', '100']",100,"['white', '100']",100,7929.9000000059605,6226f4e6fa4fd41910029ee3,id032_25L_U.png,6226dcede191b823f306f4d6,5cbcfce214b3cb0015f03471,25L,U,64831.0,6.0,0.0,survey-html-form
177,6226f6577c157e331e934040,Chrome,classification_task,faces,"3/8/2022, 1:23:15 AM",m06hvr4x7nltz9nryben,148,0.0-4.0,single_subject_test,"{'race5': 'latinx', 'race_sure': '78', 'gender2': 'woman', 'gender_sure': '100', 'feedback': ''}",,"['woman', '100']",100,"['latinx', '78']",78,12269.800000000745,6226f59b214ec3bf23138361,id148_50R_D.png,6226dcede191b823f306f4d6,60fd06e76b4bc44c8f7a8b41,50R,D,67842.0,4.0,0.0,survey-html-form
178,6226f6587c157e331e934041,Chrome,classification_task,faces,"3/8/2022, 1:23:22 AM",ysyunm1xsnea7cse1f9t,083,0.0-5.0,single_subject_test,"{'race1': 'black', 'race_sure': '100', 'gender1': 'man', 'gender_sure': '100', 'feedback': ''}",,"['man', '100']",100,"['black', '100']",100,7181.299999952316,6226f3ca4519857bce89a9e8,id083_25R_D.png,6226dcede191b823f306f4d6,604d3b6735362f8e79e30ea1,25R,D,68882.0,5.0,0.0,survey-html-form
179,6226f65d7c157e331e934042,Chrome,classification_task,faces,"3/8/2022, 12:23:25 AM",ueqhaph6qqczfc47jeb3,136,0.0-7.0,single_subject_test,"{'race1': 'black', 'race_sure': '100', 'gender1': 'man', 'gender_sure': '100', 'feedback': ''}",,"['man', '100']",100,"['black', '100']",100,8287.70000000298,6226f4e6fa4fd41910029ee3,id136_25R_C.png,6226dcede191b823f306f4d6,5cbcfce214b3cb0015f03471,25R,C,73127.0,7.0,0.0,survey-html-form
180,6226f65d7c157e331e934043,Chrome,classification_task,faces,"3/8/2022, 1:23:24 AM",zowk8xs92dses5fjm4uy,094,0.0-3.0,single_subject_test,"{'race2': 'white', 'race_sure': '71', 'gender2': 'woman', 'gender_sure': '76', 'feedback': ''}",,"['woman', '76']",76,"['white', '71']",71,16113.0,6226f60340c2a56dfa63e758,id094_50R_D.png,6226dcede191b823f306f4d6,5e3cddaa64dfd70d85a5ef3f,50R,D,73637.0,3.0,0.0,survey-html-form
181,6226f65f7c157e331e934044,Chrome,classification_task,faces,"3/8/2022, 1:23:29 AM",ysyunm1xsnea7cse1f9t,127,0.0-6.0,single_subject_test,"{'race1': 'black', 'race_sure': '100', 'gender2': 'woman', 'gender_sure': '100', 'feedback': ''}",,"['woman', '100']",100,"['black', '100']",100,6847.399999856949,6226f3ca4519857bce89a9e8,id127_00C_D.png,6226dcede191b823f306f4d6,604d3b6735362f8e79e30ea1,00C,D,75731.0,6.0,0.0,survey-html-form
182,6226f6617c157e331e934045,Chrome,classification_task,faces,"3/7/2022, 10:23:31 PM",uoyjy2l87f10lq1eb04s,020,0.0-8.0,single_subject_test,"{'race4': 'south_asian', 'race_sure': '0', 'gender1': 'man', 'gender_sure': '0', 'feedback': ''}",,"['man', '0']",0,"['south_asian', '0']",0,15064.199999999255,6226f46da1a7fd3354a536a4,id020_00C_D.png,6226dcede191b823f306f4d6,5fcdbe153ce79b287e15344e,00C,D,77043.0,8.0,0.0,survey-html-form
183,6226f6667c157e331e934046,Chrome,classification_task,faces,"3/8/2022, 1:23:35 AM",ysyunm1xsnea7cse1f9t,002,0.0-7.0,single_subject_test,"{'race2': 'white', 'race_sure': '56', 'gender1': 'man', 'gender_sure': '100', 'feedback': ''}",,"['man', '100']",100,"['white', '56']",56,6309.100000143051,6226f3ca4519857bce89a9e8,id002_25R_D.png,6226dcede191b823f306f4d6,604d3b6735362f8e79e30ea1,25R,D,82041.0,7.0,0.0,survey-html-form
184,6226f6667c157e331e934047,Chrome,classification_task,faces,"3/8/2022, 12:23:34 AM",ueqhaph6qqczfc47jeb3,019,0.0-8.0,single_subject_test,"{'race1': 'black', 'race_sure': '100', 'gender1': 'man', 'gender_sure': '100', 'feedback': ''}",,"['man', '100']",100,"['black', '100']",100,8978.29999999702,6226f4e6fa4fd41910029ee3,id019_00C_D.png,6226dcede191b823f306f4d6,5cbcfce214b3cb0015f03471,00C,D,82111.0,8.0,0.0,survey-html-form
185,6226f6667c157e331e934048,Chrome,classification_task,faces,"3/7/2022, 10:23:36 PM",uoyjy2l87f10lq1eb04s,098,0.0-9.0,single_subject_test,"{'race1': 'black', 'race_sure': '0', 'gender1': 'man', 'gender_sure': '0', 'feedback': ''}",,"['man', '0']",0,"['black', '0']",0,5651.5,6226f46da1a7fd3354a536a4,id098_25L_U.png,6226dcede191b823f306f4d6,5fcdbe153ce79b287e15344e,25L,U,82700.0,9.0,0.0,survey-html-form
186,6226f66a7c157e331e934049,Chrome,classification_task,faces,"3/8/2022, 1:23:36 AM",zowk8xs92dses5fjm4uy,088,0.0-4.0,single_subject_test,"{'race2': 'white', 'race_sure': '78', 'gender2': 'woman', 'gender_sure': '77', 'feedback': ''}",,"['woman', '77']",77,"['white', '78']",78,12289.600000023842,6226f60340c2a56dfa63e758,id088_25L_C.png,6226dcede191b823f306f4d6,5e3cddaa64dfd70d85a5ef3f,25L,C,85930.0,4.0,0.0,survey-html-form
187,6226f66d7c157e331e93404a,Chrome,classification_task,faces,"3/7/2022, 10:23:43 PM",uoyjy2l87f10lq1eb04s,081,0.0-10.0,single_subject_test,"{'race6': 'other', 'race_sure': '0', 'gender1': 'man', 'gender_sure': '0', 'feedback': ''}",,"['man', '0']",0,"['other', '0']",0,6440.0,6226f46da1a7fd3354a536a4,id081_50L_D.png,6226dcede191b823f306f4d6,5fcdbe153ce79b287e15344e,50L,D,89148.0,10.0,0.0,survey-html-form
188,6226f66f7c157e331e93404b,Chrome,classification_task,faces,"3/8/2022, 1:23:45 AM",ysyunm1xsnea7cse1f9t,077,0.0-8.0,single_subject_test,"{'race1': 'black', 'race5': 'latinx', 'race_sure': '58', 'gender2': 'woman', 'gender_sure': '100', 'feedback': ''}",,"['woman', '100']",100,"['black', 'latinx', '58']",58,9537.699999809265,6226f3ca4519857bce89a9e8,id077_25L_C.png,6226dcede191b823f306f4d6,604d3b6735362f8e79e30ea1,25L,C,91580.0,8.0,0.0,survey-html-form
189,6226f6717c157e331e93404c,Chrome,classification_task,faces,"3/8/2022, 12:23:46 AM",ueqhaph6qqczfc47jeb3,025,0.0-9.0,single_subject_test,"{'race6': 'other', 'race_sure': '100', 'gender2': 'woman', 'gender_sure': '100', 'feedback': ''}",,"['woman', '100']",100,"['other', '100']",100,11687.5,6226f4e6fa4fd41910029ee3,id025_25L_U.png,6226dcede191b823f306f4d6,5cbcfce214b3cb0015f03471,25L,U,93804.0,9.0,0.0,survey-html-form
190,6226f6727c157e331e93404d,Chrome,classification_task,faces,"3/7/2022, 10:23:48 PM",uoyjy2l87f10lq1eb04s,095,0.0-11.0,single_subject_test,"{'race6': 'other', 'race_sure': '0', 'gender1': 'man', 'gender_sure': '0', 'feedback': ''}",,"['man', '0']",0,"['other', '0']",0,5083.800000000745,6226f46da1a7fd3354a536a4,id095_25R_D.png,6226dcede191b823f306f4d6,5fcdbe153ce79b287e15344e,25R,D,94242.0,11.0,0.0,survey-html-form
191,6226f6757c157e331e93404e,Chrome,classification_task,faces,"3/8/2022, 1:23:48 AM",zowk8xs92dses5fjm4uy,004,0.0-5.0,single_subject_test,"{'race1': 'black', 'race_sure': '100', 'gender1': 'man', 'gender_sure': '100', 'feedback': ''}",,"['man', '100']",100,"['black', '100']",100,11120.799999952316,6226f60340c2a56dfa63e758,id004_25R_D.png,6226dcede191b823f306f4d6,5e3cddaa64dfd70d85a5ef3f,25R,D,97055.0,5.0,0.0,survey-html-form
192,6226f67a7c157e331e93404f,Chrome,classification_task,faces,"3/8/2022, 12:23:54 AM",ueqhaph6qqczfc47jeb3,005,0.0-10.0,single_subject_test,"{'race1': 'black', 'race_sure': '100', 'gender1': 'man', 'gender_sure': '100', 'feedback': ''}",,"['man', '100']",100,"['black', '100']",100,8131.0999999940395,6226f4e6fa4fd41910029ee3,id005_25L_C.png,6226dcede191b823f306f4d6,5cbcfce214b3cb0015f03471,25L,C,101941.0,10.0,0.0,survey-html-form
193,6226f67a7c157e331e934050,Chrome,classification_task,faces,"3/7/2022, 10:23:56 PM",uoyjy2l87f10lq1eb04s,062,0.0-12.0,single_subject_test,"{'race4': 'south_asian', 'race_sure': '0', 'gender2': 'woman', 'gender_sure': '0', 'feedback': ''}",,"['woman', '0']",0,"['south_asian', '0']",0,8272.10000000149,6226f46da1a7fd3354a536a4,id062_25R_C.png,6226dcede191b823f306f4d6,5fcdbe153ce79b287e15344e,25R,C,102525.0,12.0,0.0,survey-html-form
194,6226f69e7c157e331e934051,Chrome,classification_task,faces,"3/8/2022, 1:24:32 AM",ysyunm1xsnea7cse1f9t,114,0.0-1.0,single_subject_test,"{'race5': 'latinx', 'race_sure': '77', 'gender2': 'woman', 'gender_sure': '100', 'feedback': ''}",,"['woman', '100']",100,"['latinx', '77']",77,6770.599999904633,6226f3ca4519857bce89a9e8,id114_25R_D.png,6226dcede191b823f306f4d6,604d3b6735362f8e79e30ea1,25R,D,12072.0,1.0,0.0,survey-html-form
195,6226f6a37c157e331e934052,Chrome,classification_task,faces,"3/7/2022, 10:24:37 PM",26crkb9zun4ggtsc0se7,079,0.0-1.0,single_subject_test,"{'race6': 'other', 'race_sure': '0', 'gender1': 'man', 'gender_sure': '0', 'feedback': ''}",,"['man', '0']",0,"['other', '0']",0,5347.10000000149,6226f46da1a7fd3354a536a4,id079_50R_D.png,6226dcede191b823f306f4d6,5fcdbe153ce79b287e15344e,50R,D,15763.0,1.0,0.0,survey-html-form
196,6226f6a47c157e331e934053,Chrome,classification_task,faces,"3/8/2022, 12:24:37 AM",ueqhaph6qqczfc47jeb3,091,0.0-1.0,single_subject_test,"{'race1': 'black', 'race_sure': '100', 'gender1': 'man', 'gender_sure': '100', 'feedback': ''}",,"['man', '100']",100,"['black', '100']",100,7942.20000000298,6226f4e6fa4fd41910029ee3,id091_25R_U.png,6226dcede191b823f306f4d6,5cbcfce214b3cb0015f03471,25R,U,17933.0,1.0,0.0,survey-html-form
197,6226f6a47c157e331e934054,Chrome,classification_task,faces,"3/8/2022, 1:24:38 AM",ysyunm1xsnea7cse1f9t,055,0.0-2.0,single_subject_test,"{'race1': 'black', 'race_sure': '100', 'gender1': 'man', 'gender_sure': '100', 'feedback': ''}",,"['man', '100']",100,"['black', '100']",100,5886.0,6226f3ca4519857bce89a9e8,id055_25R_C.png,6226dcede191b823f306f4d6,604d3b6735362f8e79e30ea1,25R,C,17960.0,2.0,0.0,survey-html-form
198,6226f6a77c157e331e934055,Chrome,classification_task,faces,"3/7/2022, 10:24:39 PM",bl73rw83luedt12pz6v9,086,0.0-1.0,single_subject_test,"{'race1': 'black', 'race_sure': '100', 'gender1': 'man', 'gender_sure': '100', 'feedback': ''}",,"['man', '100']",100,"['black', '100']",100,9845.300000011921,6226f679725f60c6b6e6557d,id086_25L_C.png,6226dcede191b823f306f4d6,6111078c9939cb775b5e4206,25L,C,20522.0,1.0,0.0,survey-html-form
199,6226f6a97c157e331e934056,Chrome,classification_task,faces,"3/8/2022, 1:24:37 AM",4xcngu33bwan634sdqsa,012,0.0-1.0,single_subject_test,"{'race5': 'latinx', 'race_sure': '14', 'gender1': 'man', 'gender_sure': '100', 'feedback': ''}",,"['man', '100']",100,"['latinx', '14']",14,13489.400000002235,6226f59b214ec3bf23138361,id012_50R_D.png,6226dcede191b823f306f4d6,60fd06e76b4bc44c8f7a8b41,50R,D,22342.0,1.0,0.0,survey-html-form
200,6226f6ab7c157e331e934057,Chrome,classification_task,faces,"3/7/2022, 10:24:44 PM",26crkb9zun4ggtsc0se7,058,0.0-2.0,single_subject_test,"{'race4': 'south_asian', 'race_sure': '0', 'gender1': 'man', 'gender_sure': '0', 'feedback': ''}",,"['man', '0']",0,"['south_asian', '0']",0,7308.0,6226f46da1a7fd3354a536a4,id058_50L_U.png,6226dcede191b823f306f4d6,5fcdbe153ce79b287e15344e,50L,U,23124.0,2.0,0.0,survey-html-form
201,6226f6ab7c157e331e934058,Chrome,classification_task,faces,"3/8/2022, 1:24:44 AM",ysyunm1xsnea7cse1f9t,085,0.0-3.0,single_subject_test,"{'race1': 'black', 'race_sure': '80', 'gender2': 'woman', 'gender_sure': '100', 'feedback': ''}",,"['woman', '100']",100,"['black', '80']",80,6682.800000190735,6226f3ca4519857bce89a9e8,id085_25L_U.png,6226dcede191b823f306f4d6,604d3b6735362f8e79e30ea1,25L,U,24643.0,3.0,0.0,survey-html-form
202,6226f6b27c157e331e934059,Chrome,classification_task,faces,"3/8/2022, 1:24:51 AM",ysyunm1xsnea7cse1f9t,078,0.0-4.0,single_subject_test,"{'race2': 'white', 'race5': 'latinx', 'race_sure': '73', 'gender1': 'man', 'gender_sure': '100', 'feedback': ''}",,"['man', '100']",100,"['white', 'latinx', '73']",73,6777.5,6226f3ca4519857bce89a9e8,id078_00C_C.png,6226dcede191b823f306f4d6,604d3b6735362f8e79e30ea1,00C,C,31422.0,4.0,0.0,survey-html-form
203,6226f6b27c157e331e93405a,Chrome,classification_task,faces,"3/7/2022, 10:24:52 PM",26crkb9zun4ggtsc0se7,107,0.0-3.0,single_subject_test,"{'race5': 'latinx', 'race_sure': '0', 'gender1': 'man', 'gender_sure': '0', 'feedback': ''}",,"['man', '0']",0,"['latinx', '0']",0,7657.699999999255,6226f46da1a7fd3354a536a4,id107_25R_U.png,6226dcede191b823f306f4d6,5fcdbe153ce79b287e15344e,25R,U,30791.0,3.0,0.0,survey-html-form
204,6226f6b37c157e331e93405b,Chrome,classification_task,faces,"3/7/2022, 10:24:51 PM",bl73rw83luedt12pz6v9,151,0.0-2.0,single_subject_test,"{'race3': 'east_asian', 'race_sure': '77', 'gender2': 'woman', 'gender_sure': '99', 'feedback': ''}",,"['woman', '99']",99,"['east_asian', '77']",77,12165.79999999702,6226f679725f60c6b6e6557d,id151_00C_C.png,6226dcede191b823f306f4d6,6111078c9939cb775b5e4206,00C,C,32730.0,2.0,0.0,survey-html-form
205,6226f6b37c157e331e93405c,Chrome,classification_task,faces,"3/8/2022, 1:24:47 AM",4xcngu33bwan634sdqsa,073,0.0-2.0,single_subject_test,"{'race2': 'white', 'race_sure': '90', 'gender1': 'man', 'gender_sure': '100', 'feedback': ''}",,"['man', '100']",100,"['white', '90']",90,10488.60000000149,6226f59b214ec3bf23138361,id073_25R_C.png,6226dcede191b823f306f4d6,60fd06e76b4bc44c8f7a8b41,25R,C,32837.0,2.0,0.0,survey-html-form
206,6226f6c47c157e331e93405d,Chrome,classification_task,faces,"3/7/2022, 10:25:08 PM",bl73rw83luedt12pz6v9,035,0.0-1.0,single_subject_test,"{'race1': 'black', 'race_sure': '0', 'gender2': 'woman', 'gender_sure': '0', 'feedback': ''}",,"['woman', '0']",0,"['black', '0']",0,3859.800000011921,6226f679725f60c6b6e6557d,id035_25L_U.png,6226dcede191b823f306f4d6,6111078c9939cb775b5e4206,25L,U,7799.0,1.0,0.0,survey-html-form
207,6226f6e47c157e331e93405e,Chrome,classification_task,faces,"3/8/2022, 1:25:42 AM",tbclhnopmx7txyjs9pe3,133,0.0-1.0,single_subject_test,"{'race1': 'black', 'race5': 'latinx', 'race_sure': '68', 'gender2': 'woman', 'gender_sure': '100', 'feedback': ''}",,"['woman', '100']",100,"['black', 'latinx', '68']",68,7711.0,6226f3ca4519857bce89a9e8,id133_25L_U.png,6226dcede191b823f306f4d6,604d3b6735362f8e79e30ea1,25L,U,13614.0,1.0,0.0,survey-html-form
208,6226f6e67c157e331e93405f,Chrome,classification_task,faces,"3/8/2022, 12:25:42 AM",ueqhaph6qqczfc47jeb3,099,0.0-1.0,single_subject_test,"{'race2': 'white', 'race_sure': '100', 'gender1': 'man', 'gender_sure': '100', 'feedback': ''}",,"['man', '100']",100,"['white', '100']",100,7816.79999999702,6226f4e6fa4fd41910029ee3,id099_25R_C.png,6226dcede191b823f306f4d6,5cbcfce214b3cb0015f03471,25R,C,15450.0,1.0,0.0,survey-html-form
209,6226f6e97c157e331e934060,Chrome,classification_task,faces,"3/8/2022, 1:25:41 AM",0yvbos5y7j0wc185jfd3,023,0.0-1.0,single_subject_test,"{'race3': 'east_asian', 'race_sure': '52', 'gender1': 'man', 'gender_sure': '100', 'feedback': ''}",,"['man', '100']",100,"['east_asian', '52']",52,12792.5,6226f59b214ec3bf23138361,id023_50R_D.png,6226dcede191b823f306f4d6,60fd06e76b4bc44c8f7a8b41,50R,D,18469.0,1.0,0.0,survey-html-form
210,6226f6ed7c157e331e934061,Chrome,classification_task,faces,"3/8/2022, 1:25:50 AM",tbclhnopmx7txyjs9pe3,150,0.0-2.0,single_subject_test,"{'race5': 'latinx', 'race_sure': '46', 'gender2': 'woman', 'gender_sure': '82', 'feedback': ''}",,"['woman', '82']",82,"['latinx', '46']",46,8454.900000095367,6226f3ca4519857bce89a9e8,id150_00C_U.png,6226dcede191b823f306f4d6,604d3b6735362f8e79e30ea1,00C,U,22071.0,2.0,0.0,survey-html-form
211,6226f6ee7c157e331e934062,Chrome,classification_task,faces,"3/8/2022, 12:25:50 AM",ueqhaph6qqczfc47jeb3,152,0.0-2.0,single_subject_test,"{'race2': 'white', 'race_sure': '100', 'gender2': 'woman', 'gender_sure': '100', 'feedback': ''}",,"['woman', '100']",100,"['white', '100']",100,8257.39999999851,6226f4e6fa4fd41910029ee3,id152_25L_C.png,6226dcede191b823f306f4d6,5cbcfce214b3cb0015f03471,25L,C,23714.0,2.0,0.0,survey-html-form
212,6226f6f17c157e331e934063,Chrome,classification_task,faces,"3/7/2022, 10:25:53 PM",6sj9a3zsf8vluuy97gmq,051,0.0-1.0,single_subject_test,"{'race5': 'latinx', 'race_sure': '7', 'gender2': 'woman', 'gender_sure': '20', 'feedback': ''}",,"['woman', '20']",20,"['latinx', '7']",7,19847.200000047684,6226f6a8f662593a92ee6276,id051_25R_C.png,6226dcede191b823f306f4d6,59f2c78ea7df4f00012ce2a6,25R,C,26208.0,1.0,0.0,survey-html-form
213,6226f6f57c157e331e934064,Chrome,classification_task,faces,"3/8/2022, 1:25:59 AM",tbclhnopmx7txyjs9pe3,017,0.0-3.0,single_subject_test,"{'race1': 'black', 'race4': 'south_asian', 'race_sure': '56', 'gender2': 'woman', 'gender_sure': '76', 'feedback': ''}",,"['woman', '76']",76,"['black', 'south_asian', '56']",56,8619.0,6226f3ca4519857bce89a9e8,id017_25R_D.png,6226dcede191b823f306f4d6,604d3b6735362f8e79e30ea1,25R,D,30693.0,3.0,0.0,survey-html-form
214,6226f6f67c157e331e934065,Chrome,classification_task,faces,"3/8/2022, 1:25:53 AM",0yvbos5y7j0wc185jfd3,147,0.0-2.0,single_subject_test,"{'race2': 'white', 'race5': 'latinx', 'race_sure': '0', 'gender1': 'man', 'gender_sure': '100', 'feedback': ''}",,"['man', '100']",100,"['white', 'latinx', '0']",0,12514.0,6226f59b214ec3bf23138361,id147_50L_C.png,6226dcede191b823f306f4d6,60fd06e76b4bc44c8f7a8b41,50L,C,30989.0,2.0,0.0,survey-html-form
215,6226f6fe7c157e331e934066,Chrome,classification_task,faces,"3/8/2022, 1:26:07 AM",tbclhnopmx7txyjs9pe3,121,0.0-4.0,single_subject_test,"{'race1': 'black', 'race5': 'latinx', 'race_sure': '75', 'gender1': 'man', 'gender_sure': '100', 'feedback': ''}",,"['man', '100']",100,"['black', 'latinx', '75']",75,8717.200000047684,6226f3ca4519857bce89a9e8,id121_50R_U.png,6226dcede191b823f306f4d6,604d3b6735362f8e79e30ea1,50R,U,39412.0,4.0,0.0,survey-html-form
216,6226f6fe7c157e331e934067,Chrome,classification_task,faces,"3/8/2022, 1:26:02 AM",0yvbos5y7j0wc185jfd3,049,0.0-3.0,single_subject_test,"{'race2': 'white', 'race_sure': '55', 'gender1': 'man', 'gender_sure': '100', 'feedback': ''}",,"['man', '100']",100,"['white', '55']",55,8636.39999999851,6226f59b214ec3bf23138361,id049_50R_D.png,6226dcede191b823f306f4d6,60fd06e76b4bc44c8f7a8b41,50R,D,39631.0,3.0,0.0,survey-html-form
217,6226f7067c157e331e934068,Chrome,classification_task,faces,"3/8/2022, 1:26:16 AM",tbclhnopmx7txyjs9pe3,070,0.0-5.0,single_subject_test,"{'race5': 'latinx', 'race_sure': '82', 'gender1': 'man', 'gender_sure': '100', 'feedback': ''}",,"['man', '100']",100,"['latinx', '82']",82,8358.600000143051,6226f3ca4519857bce89a9e8,id070_00C_U.png,6226dcede191b823f306f4d6,604d3b6735362f8e79e30ea1,00C,U,47773.0,5.0,0.0,survey-html-form
218,6226f7077c157e331e934069,Chrome,classification_task,faces,"3/7/2022, 10:26:15 PM",6sj9a3zsf8vluuy97gmq,071,0.0-2.0,single_subject_test,"{'race5': 'latinx', 'race_sure': '14', 'gender1': 'man', 'gender_sure': '88', 'feedback': ''}",,"['man', '88']",88,"['latinx', '14']",14,22227.5,6226f6a8f662593a92ee6276,id071_25R_U.png,6226dcede191b823f306f4d6,59f2c78ea7df4f00012ce2a6,25R,U,48466.0,2.0,0.0,survey-html-form
219,6226f7087c157e331e93406a,Chrome,classification_task,faces,"3/8/2022, 1:26:12 AM",0yvbos5y7j0wc185jfd3,062,0.0-4.0,single_subject_test,"{'race1': 'black', 'race5': 'latinx', 'race_sure': '72', 'gender2': 'woman', 'gender_sure': '92', 'feedback': ''}",,"['woman', '92']",92,"['black', 'latinx', '72']",72,9759.800000000745,6226f59b214ec3bf23138361,id062_25R_D.png,6226dcede191b823f306f4d6,60fd06e76b4bc44c8f7a8b41,25R,D,49397.0,4.0,0.0,survey-html-form
220,6226f70c7c157e331e93406b,Chrome,classification_task,faces,"3/8/2022, 1:26:21 AM",tbclhnopmx7txyjs9pe3,132,0.0-6.0,single_subject_test,"{'race1': 'black', 'race_sure': '100', 'gender1': 'man', 'gender_sure': '100', 'feedback': ''}",,"['man', '100']",100,"['black', '100']",100,5233.800000190735,6226f3ca4519857bce89a9e8,id132_00C_D.png,6226dcede191b823f306f4d6,604d3b6735362f8e79e30ea1,00C,D,53009.0,6.0,0.0,survey-html-form
221,6226f7127c157e331e93406c,Chrome,classification_task,faces,"3/8/2022, 1:26:28 AM",tbclhnopmx7txyjs9pe3,072,0.0-7.0,single_subject_test,"{'race1': 'black', 'race5': 'latinx', 'race_sure': '69', 'gender1': 'man', 'gender_sure': '100', 'feedback': ''}",,"['man', '100']",100,"['black', 'latinx', '69']",69,6612.799999952316,6226f3ca4519857bce89a9e8,id072_25L_D.png,6226dcede191b823f306f4d6,604d3b6735362f8e79e30ea1,25L,D,59624.0,7.0,0.0,survey-html-form
222,6226f7147c157e331e93406d,Chrome,classification_task,faces,"3/7/2022, 10:26:27 PM",6sj9a3zsf8vluuy97gmq,050,0.0-3.0,single_subject_test,"{'race2': 'white', 'race_sure': '73', 'gender1': 'man', 'gender_sure': '85', 'feedback': ''}",,"['man', '85']",85,"['white', '73']",73,12476.200000047684,6226f6a8f662593a92ee6276,id050_00C_U.png,6226dcede191b823f306f4d6,59f2c78ea7df4f00012ce2a6,00C,U,60944.0,3.0,0.0,survey-html-form
223,6226f7157c157e331e93406e,Chrome,classification_task,faces,"3/8/2022, 1:26:25 AM",0yvbos5y7j0wc185jfd3,071,0.0-5.0,single_subject_test,"{'race1': 'black', 'race2': 'white', 'race_sure': '53', 'gender1': 'man', 'gender_sure': '97', 'feedback': ''}",,"['man', '97']",97,"['black', 'white', '53']",53,12794.199999999255,6226f59b214ec3bf23138361,id071_50L_C.png,6226dcede191b823f306f4d6,60fd06e76b4bc44c8f7a8b41,50L,C,62197.0,5.0,0.0,survey-html-form
224,6226f71a7c157e331e93406f,Chrome,classification_task,faces,"3/8/2022, 1:26:35 AM",tbclhnopmx7txyjs9pe3,115,0.0-8.0,single_subject_test,"{'race2': 'white', 'race5': 'latinx', 'race_sure': '71', 'gender1': 'man', 'gender_sure': '100', 'feedback': ''}",,"['man', '100']",100,"['white', 'latinx', '71']",71,7344.900000095367,6226f3ca4519857bce89a9e8,id115_25L_U.png,6226dcede191b823f306f4d6,604d3b6735362f8e79e30ea1,25L,U,66971.0,8.0,0.0,survey-html-form
225,6226f71d7c157e331e934070,Chrome,classification_task,faces,"3/8/2022, 1:26:33 AM",0yvbos5y7j0wc185jfd3,141,0.0-6.0,single_subject_test,"{'race2': 'white', 'race_sure': '94', 'gender2': 'woman', 'gender_sure': '100', 'feedback': ''}",,"['woman', '100']",100,"['white', '94']",94,8069.79999999702,6226f59b214ec3bf23138361,id141_25L_D.png,6226dcede191b823f306f4d6,60fd06e76b4bc44c8f7a8b41,25L,D,70272.0,6.0,0.0,survey-html-form
226,6226f71f7c157e331e934071,Chrome,classification_task,faces,"3/7/2022, 10:26:39 PM",6sj9a3zsf8vluuy97gmq,104,0.0-4.0,single_subject_test,"{'race2': 'white', 'race_sure': '69', 'gender1': 'man', 'gender_sure': '87', 'feedback': ''}",,"['man', '87']",87,"['white', '69']",69,11293.399999856949,6226f6a8f662593a92ee6276,id104_25L_U.png,6226dcede191b823f306f4d6,59f2c78ea7df4f00012ce2a6,25L,U,72242.0,4.0,0.0,survey-html-form
227,6226f7207c157e331e934072,Chrome,classification_task,faces,"3/8/2022, 1:26:41 AM",tbclhnopmx7txyjs9pe3,153,0.0-9.0,single_subject_test,"{'race2': 'white', 'race_sure': '81', 'gender2': 'woman', 'gender_sure': '100', 'feedback': ''}",,"['woman', '100']",100,"['white', '81']",81,6518.299999952316,6226f3ca4519857bce89a9e8,id153_50L_D.png,6226dcede191b823f306f4d6,604d3b6735362f8e79e30ea1,50L,D,73491.0,9.0,0.0,survey-html-form
228,6226f7257c157e331e934073,Chrome,classification_task,faces,"3/8/2022, 1:26:41 AM",0yvbos5y7j0wc185jfd3,140,0.0-7.0,single_subject_test,"{'race1': 'black', 'race_sure': '94', 'gender2': 'woman', 'gender_sure': '85', 'feedback': ''}",,"['woman', '85']",85,"['black', '94']",94,8021.900000002235,6226f59b214ec3bf23138361,id140_25R_C.png,6226dcede191b823f306f4d6,60fd06e76b4bc44c8f7a8b41,25R,C,78299.0,7.0,0.0,survey-html-form
229,6226f7267c157e331e934074,Chrome,classification_task,faces,"3/8/2022, 1:26:48 AM",tbclhnopmx7txyjs9pe3,061,0.0-10.0,single_subject_test,"{'race2': 'white', 'race_sure': '74', 'gender1': 'man', 'gender_sure': '100', 'feedback': ''}",,"['man', '100']",100,"['white', '74']",74,6354.5,6226f3ca4519857bce89a9e8,id061_50R_C.png,6226dcede191b823f306f4d6,604d3b6735362f8e79e30ea1,50R,C,79847.0,10.0,0.0,survey-html-form
230,6226f72d7c157e331e934075,Chrome,classification_task,faces,"3/8/2022, 1:26:54 AM",tbclhnopmx7txyjs9pe3,035,0.0-11.0,single_subject_test,"{'race1': 'black', 'race_sure': '77', 'gender2': 'woman', 'gender_sure': '90', 'feedback': ''}",,"['woman', '90']",90,"['black', '77']",77,6128.5,6226f3ca4519857bce89a9e8,id035_25R_C.png,6226dcede191b823f306f4d6,604d3b6735362f8e79e30ea1,25R,C,85978.0,11.0,0.0,survey-html-form
231,6226f72d7c157e331e934076,Chrome,classification_task,faces,"3/8/2022, 1:26:49 AM",0yvbos5y7j0wc185jfd3,072,0.0-8.0,single_subject_test,"{'race5': 'latinx', 'race_sure': '89', 'gender1': 'man', 'gender_sure': '100', 'feedback': ''}",,"['man', '100']",100,"['latinx', '89']",89,7835.900000002235,6226f59b214ec3bf23138361,id072_25R_C.png,6226dcede191b823f306f4d6,60fd06e76b4bc44c8f7a8b41,25R,C,86140.0,8.0,0.0,survey-html-form
232,6226f7327c157e331e934077,Chrome,classification_task,faces,"3/8/2022, 1:26:59 AM",tbclhnopmx7txyjs9pe3,114,0.0-12.0,single_subject_test,"{'race2': 'white', 'race_sure': '71', 'gender2': 'woman', 'gender_sure': '100', 'feedback': ''}",,"['woman', '100']",100,"['white', '71']",71,5410.0,6226f3ca4519857bce89a9e8,id114_50R_U.png,6226dcede191b823f306f4d6,604d3b6735362f8e79e30ea1,50R,U,91390.0,12.0,0.0,survey-html-form
233,6226f7347c157e331e934078,Chrome,classification_task,faces,"3/8/2022, 1:26:56 AM",0yvbos5y7j0wc185jfd3,119,0.0-9.0,single_subject_test,"{'race1': 'black', 'race_sure': '100', 'gender1': 'man', 'gender_sure': '100', 'feedback': ''}",,"['man', '100']",100,"['black', '100']",100,7468.300000000745,6226f59b214ec3bf23138361,id119_25L_U.png,6226dcede191b823f306f4d6,60fd06e76b4bc44c8f7a8b41,25L,U,93613.0,9.0,0.0,survey-html-form
234,6226f73a7c157e331e934079,Chrome,classification_task,faces,"3/8/2022, 1:27:07 AM",tbclhnopmx7txyjs9pe3,011,0.0-13.0,single_subject_test,"{'race1': 'black', 'race5': 'latinx', 'race_sure': '58', 'gender1': 'man', 'gender_sure': '100', 'feedback': ''}",,"['man', '100']",100,"['black', 'latinx', '58']",58,7927.899999856949,6226f3ca4519857bce89a9e8,id011_00C_D.png,6226dcede191b823f306f4d6,604d3b6735362f8e79e30ea1,00C,D,99320.0,13.0,0.0,survey-html-form
235,6226f73c7c157e331e93407a,Chrome,classification_task,faces,"3/8/2022, 1:27:04 AM",0yvbos5y7j0wc185jfd3,133,0.0-10.0,single_subject_test,"{'race1': 'black', 'race_sure': '100', 'gender2': 'woman', 'gender_sure': '74', 'feedback': ''}",,"['woman', '74']",74,"['black', '100']",100,7543.199999999255,6226f59b214ec3bf23138361,id133_25L_C.png,6226dcede191b823f306f4d6,60fd06e76b4bc44c8f7a8b41,25L,C,101162.0,10.0,0.0,survey-html-form
236,6226f7407c157e331e93407b,Chrome,classification_task,faces,"3/7/2022, 10:27:11 PM",6sj9a3zsf8vluuy97gmq,062,0.0-5.0,single_subject_test,"{'race5': 'latinx', 'race_sure': '16', 'gender2': 'woman', 'gender_sure': '53', 'feedback': ''}",,"['woman', '53']",53,"['latinx', '16']",16,32794.0,6226f6a8f662593a92ee6276,id062_25L_D.png,6226dcede191b823f306f4d6,59f2c78ea7df4f00012ce2a6,25L,D,105040.0,5.0,0.0,survey-html-form
237,6226f7427c157e331e93407c,Chrome,classification_task,faces,"3/8/2022, 1:27:15 AM",tbclhnopmx7txyjs9pe3,031,0.0-14.0,single_subject_test,"{'race2': 'white', 'race5': 'latinx', 'race_sure': '75', 'gender2': 'woman', 'gender_sure': '90', 'feedback': ''}",,"['woman', '90']",90,"['white', 'latinx', '75']",75,7883.799999952316,6226f3ca4519857bce89a9e8,id031_00C_D.png,6226dcede191b823f306f4d6,604d3b6735362f8e79e30ea1,00C,D,107206.0,14.0,0.0,survey-html-form
238,6226f7457c157e331e93407d,Chrome,classification_task,faces,"3/8/2022, 1:27:16 AM",jwlsvooz9hnxq5xrd290,050,0.0-1.0,single_subject_test,"{'race2': 'white', 'race_sure': '69', 'gender1': 'man', 'gender_sure': '98', 'feedback': ''}",,"['man', '98']",98,"['white', '69']",69,18776.399999976158,6226f6c440c2a56dfa63e75d,id050_50R_D.png,6226dcede191b823f306f4d6,5e059d2bb1fb05fd1f841142,50R,D,110087.0,1.0,0.0,survey-html-form
